trials.thisTrialN,trials.stepSize,trials.intensity,Fixation.started,grating.started,key_resp.started,Fixation.stopped,grating.stopped,corrAns,key_resp.corr,tilt,trials.response,key_resp.rt,participant,session,date,expName,psychopyVersion,frameRate,
0,2,10.0,18.939961299998686,19.478531000000658,19.478531000000658,19.49640649999492,19.780400299991015,left,1,-10.0,1,0.529238000017358,0001,001,2023-09-07_07h58.12.472,Adaptive staircase procedure,2023.1.3,60.2059283659444,
1,2,8.0,20.031202399986796,20.515285899979062,20.515285899979062,20.531684899993706,20.81573919998482,right,1,8.0,1,0.5268616999965161,0001,001,2023-09-07_07h58.12.472,Adaptive staircase procedure,2023.1.3,60.2059283659444,
2,2,6.0,21.065818399976706,21.549611399997957,21.549611399997957,21.566168099991046,21.849937199993292,right,1,6.0,1,0.6731637999764644,0001,001,2023-09-07_07h58.12.472,Adaptive staircase procedure,2023.1.3,60.2059283659444,
3,2,4.0,22.250034500000766,22.750714800000424,22.750714800000424,22.750714800000424,23.051296599995112,right,1,4.0,1,0.7139276000089012,0001,001,2023-09-07_07h58.12.472,Adaptive staircase procedure,2023.1.3,60.2059283659444,
4,2,2.0,23.484866199985845,23.985371099988697,23.985371099988697,23.985371099988697,24.286077099997783,right,0,2.0,0,1.9240485000191256,0001,001,2023-09-07_07h58.12.472,Adaptive staircase procedure,2023.1.3,60.2059283659444,
5,2,4.0,25.937593299982836,26.43836359999841,26.43836359999841,26.43836359999841,26.73848229998839,left,1,-4.0,1,0.7008009000273887,0001,001,2023-09-07_07h58.12.472,Adaptive staircase procedure,2023.1.3,60.2059283659444,
6,2,4.0,27.155545599991456,27.656239399977494,27.656239399977494,27.656239399977494,27.957259999995586,right,1,4.0,1,0.6685607999970671,0001,001,2023-09-07_07h58.12.472,Adaptive staircase procedure,2023.1.3,60.2059283659444,
7,1,4.0,28.356941399979405,28.857241499994416,28.857241499994416,28.857241499994416,29.157979599985993,right,1,4.0,1,0.6939307000138797,0001,001,2023-09-07_07h58.12.472,Adaptive staircase procedure,2023.1.3,60.2059283659444,
8,1,3.0,29.575016399991,30.058699399989564,30.058699399989564,30.075336999987485,30.35919209997519,left,1,-3.0,1,0.722490399988601,0001,001,2023-09-07_07h58.12.472,Adaptive staircase procedure,2023.1.3,60.2059283659444,
9,1,3.0,30.809599300002446,31.29320970000117,31.29320970000117,31.310561499994947,31.593637899990426,left,1,-3.0,1,0.6885244000004604,0001,001,2023-09-07_07h58.12.472,Adaptive staircase procedure,2023.1.3,60.2059283659444,
10,1,3.0,32.010716399992816,32.494747999997344,32.494747999997344,32.511083999997936,32.794941799977096,left,1,-3.0,1,0.677652999991551,0001,001,2023-09-07_07h58.12.472,Adaptive staircase procedure,2023.1.3,60.2059283659444,
11,1,2.0,33.195232999976724,33.69598639998003,33.69598639998003,33.69598639998003,33.99645179999061,right,1,2.0,1,0.6662523999984842,0001,001,2023-09-07_07h58.12.472,Adaptive staircase procedure,2023.1.3,60.2059283659444,
12,1,2.0,34.38027399999555,34.88059769998654,34.88059769998654,34.88059769998654,35.18110539999907,right,1,2.0,1,0.6844279999786522,0001,001,2023-09-07_07h58.12.472,Adaptive staircase procedure,2023.1.3,60.2059283659444,
13,1,2.0,35.58136509999167,36.08212849998381,36.08212849998381,36.08212849998381,36.38212759999442,left,1,-2.0,1,0.6161150999832898,0001,001,2023-09-07_07h58.12.472,Adaptive staircase procedure,2023.1.3,60.2059283659444,
14,1,1.0,36.71622329999809,37.216711999994004,37.216711999994004,37.216711999994004,37.51657929999055,right,1,1.0,1,0.6221823000232689,0001,001,2023-09-07_07h58.12.472,Adaptive staircase procedure,2023.1.3,60.2059283659444,
15,1,1.0,37.86758849999751,38.35104389998014,38.35104389998014,38.36757370000123,38.65111249999609,left,1,-1.0,1,0.5729693000030238,0001,001,2023-09-07_07h58.12.472,Adaptive staircase procedure,2023.1.3,60.2059283659444,
16,1,1.0,38.953149899985874,39.452215099998284,39.452215099998284,39.46893360000104,39.75301109999418,left,1,-1.0,1,0.8477973000262864,0001,001,2023-09-07_07h58.12.472,Adaptive staircase procedure,2023.1.3,60.2059283659444,
17,1,1.0,40.320265499991365,40.80384569999296,40.80384569999296,40.82064229997923,41.10414409998339,left,1,-1.0,1,0.7569581000134349,0001,001,2023-09-07_07h58.12.472,Adaptive staircase procedure,2023.1.3,60.2059283659444,
18,1,1.0,41.58827169999131,42.07204499997897,42.07204499997897,42.08872849997715,42.37227539997548,right,1,1.0,1,0.7748444000026211,0001,001,2023-09-07_07h58.12.472,Adaptive staircase procedure,2023.1.3,60.2059283659444,
19,1,1.0,42.8731011999771,43.35668079997413,43.35668079997413,43.37322399998084,43.65693040000042,right,1,1.0,1,0.8161020000115968,0001,001,2023-09-07_07h58.12.472,Adaptive staircase procedure,2023.1.3,60.2059283659444,
20,1,1.0,44.19116889999714,44.69151829998009,44.69151829998009,44.69151829998009,44.99188689998118,left,1,-1.0,1,0.7814950000029057,0001,001,2023-09-07_07h58.12.472,Adaptive staircase procedure,2023.1.3,60.2059283659444,
21,1,1.0,45.49246369997854,45.992924699996365,45.992924699996365,45.992924699996365,46.293207199982135,left,1,-1.0,1,0.786111500026891,0001,001,2023-09-07_07h58.12.472,Adaptive staircase procedure,2023.1.3,60.2059283659444,
22,1,1.0,46.81066160000046,47.31100209997385,47.31100209997385,47.31100209997385,47.611440499982564,right,1,1.0,1,0.6883084999863058,0001,001,2023-09-07_07h58.12.472,Adaptive staircase procedure,2023.1.3,60.2059283659444,
23,1,1.0,48.02843749997555,48.512209899985464,48.512209899985464,48.5288722999976,48.812814199976856,right,0,1.0,0,1.096713999984786,0001,001,2023-09-07_07h58.12.472,Adaptive staircase procedure,2023.1.3,60.2059283659444,
24,1,2.0,49.63059059999068,50.13094969998929,50.13094969998929,50.13094969998929,50.432487599988235,left,1,-2.0,1,0.7021637000143528,0001,001,2023-09-07_07h58.12.472,Adaptive staircase procedure,2023.1.3,60.2059283659444,
25,1,2.0,50.86506079998799,51.34911419998389,51.34911419998389,51.36557259998517,51.648961200000485,right,1,2.0,1,0.6799410000094213,0001,001,2023-09-07_07h58.12.472,Adaptive staircase procedure,2023.1.3,60.2059283659444,
26,0.5,2.0,52.04960699999356,52.54985729997861,52.54985729997861,52.54985729997861,52.850274600001285,right,1,2.0,1,0.7135607000091113,0001,001,2023-09-07_07h58.12.472,Adaptive staircase procedure,2023.1.3,60.2059283659444,
27,0.5,1.5,53.284430399973644,53.78509949997533,53.78509949997533,53.78509949997533,54.085437799978536,left,1,-1.5,1,0.660088500007987,0001,001,2023-09-07_07h58.12.472,Adaptive staircase procedure,2023.1.3,60.2059283659444,
28,0.5,1.5,54.468610399984755,54.970052799995756,54.970052799995756,54.970052799995756,55.26928069998394,left,1,-1.5,1,1.0472769000043627,0001,001,2023-09-07_07h58.12.472,Adaptive staircase procedure,2023.1.3,60.2059283659444,
29,0.5,1.5,56.03715559997363,56.53835379998782,56.53835379998782,56.53835379998782,56.83816069999011,left,1,-1.5,1,0.7741152999806218,0001,001,2023-09-07_07h58.12.472,Adaptive staircase procedure,2023.1.3,60.2059283659444,
30,0.5,1.0,57.33877360000042,57.82253869998385,57.82253869998385,57.83908409997821,58.12315369999851,left,1,-1.0,1,0.7514635999978054,0001,001,2023-09-07_07h58.12.472,Adaptive staircase procedure,2023.1.3,60.2059283659444,
31,0.5,1.0,58.59038789998158,59.09086889997707,59.09086889997707,59.09086889997707,59.391332699975464,right,1,1.0,1,1.2412627000012435,0001,001,2023-09-07_07h58.12.472,Adaptive staircase procedure,2023.1.3,60.2059283659444,
32,0.5,1.0,60.358771300001536,60.842850599990925,60.842850599990925,60.859340599999996,61.143302799988305,left,1,-1.0,1,0.7251615000132006,0001,001,2023-09-07_07h58.12.472,Adaptive staircase procedure,2023.1.3,60.2059283659444,
33,0.5,1.0,61.59392649997608,62.07740329997614,62.07740329997614,62.09421239999938,62.37771889998112,right,1,1.0,1,1.9409550999989733,0001,001,2023-09-07_07h58.12.472,Adaptive staircase procedure,2023.1.3,60.2059283659444,
34,0.5,1.0,64.04594959999667,64.52986670000246,64.52986670000246,64.54641909999191,64.83010859999922,right,0,1.0,0,1.2514028000005055,0001,001,2023-09-07_07h58.12.472,Adaptive staircase procedure,2023.1.3,60.2059283659444,
35,0.5,1.5,65.79816229999415,66.29865079998854,66.29865079998854,66.29865079998854,66.59914589999244,left,1,-1.5,1,0.6791006999847014,0001,001,2023-09-07_07h58.12.472,Adaptive staircase procedure,2023.1.3,60.2059283659444,
36,0.5,1.5,66.99952389998361,67.49991199999931,67.49991199999931,67.49991199999931,67.8001589999767,right,1,1.5,1,0.8945258999883663,0001,001,2023-09-07_07h58.12.472,Adaptive staircase procedure,2023.1.3,60.2059283659444,
37,0.5,1.5,68.41784579999512,68.91815749998204,68.91815749998204,68.91815749998204,69.2189442999952,left,1,-1.5,1,0.6460954000067431,0001,001,2023-09-07_07h58.12.472,Adaptive staircase procedure,2023.1.3,60.2059283659444,
38,0.5,1.0,69.58571469999151,70.06924169999547,70.06924169999547,70.08590399997775,70.36977059999481,right,0,1.0,0,0.8059512000181712,0001,001,2023-09-07_07h58.12.472,Adaptive staircase procedure,2023.1.3,60.2059283659444,
39,0.5,1.5,70.90358299997752,71.38753569999244,71.38753569999244,71.40411429997766,71.68835109999054,right,0,1.5,0,0.9542107000015676,0001,001,2023-09-07_07h58.12.472,Adaptive staircase procedure,2023.1.3,60.2059283659444,
40,0.5,2.0,72.37212679997901,72.87251970000216,72.87251970000216,72.87251970000216,73.17273029999342,right,1,2.0,1,0.6899477000115439,0001,001,2023-09-07_07h58.12.472,Adaptive staircase procedure,2023.1.3,60.2059283659444,
41,0.5,2.0,73.5899184999871,74.07382499999949,74.07382499999949,74.09073499997612,74.3741783000005,right,1,2.0,1,0.714836600003764,0001,001,2023-09-07_07h58.12.472,Adaptive staircase procedure,2023.1.3,60.2059283659444,
42,0.5,2.0,74.80804209999042,75.3084710999974,75.3084710999974,75.3084710999974,75.60891899999115,left,1,-2.0,1,0.6503328999970108,0001,001,2023-09-07_07h58.12.472,Adaptive staircase procedure,2023.1.3,60.2059283659444,
43,0.5,1.5,75.97592279998935,76.47643019998213,76.47643019998213,76.47643019998213,76.77659850000055,left,1,-1.5,1,0.6783232000016142,0001,001,2023-09-07_07h58.12.472,Adaptive staircase procedure,2023.1.3,60.2059283659444,
44,0.5,1.5,77.17735469999025,77.67790349997813,77.67790349997813,77.67790349997813,77.97811849997379,left,1,-1.5,1,0.7176441999909002,0001,001,2023-09-07_07h58.12.472,Adaptive staircase procedure,2023.1.3,60.2059283659444,
45,0.5,1.5,78.41210169999977,78.91262029999052,78.91262029999052,78.91262029999052,79.21257069997955,right,1,1.5,1,0.6476636999868788,0001,001,2023-09-07_07h58.12.472,Adaptive staircase procedure,2023.1.3,60.2059283659444,
46,0.5,1.0,79.57989880000241,80.08070569997653,80.08070569997653,80.08070569997653,80.38074839999899,left,1,-1.0,1,0.6255243999767117,0001,001,2023-09-07_07h58.12.472,Adaptive staircase procedure,2023.1.3,60.2059283659444,
47,0.5,1.0,80.73116529997787,81.21505289999186,81.21505289999186,81.23160949998419,81.51557439999306,left,1,-1.0,1,0.6208325999905355,0001,001,2023-09-07_07h58.12.472,Adaptive staircase procedure,2023.1.3,60.2059283659444,
48,0.5,1.0,81.86556179999025,82.34943609999027,82.34943609999027,82.36636249997537,82.64952769997763,right,0,1.0,0,0.7221531999821309,0001,001,2023-09-07_07h58.12.472,Adaptive staircase procedure,2023.1.3,60.2059283659444,
49,0.5,1.5,83.10027769999579,83.60096669997438,83.60096669997438,83.60096669997438,83.90152659997693,right,0,1.5,0,0.9116856000036933,0001,001,2023-09-07_07h58.12.472,Adaptive staircase procedure,2023.1.3,60.2059283659444,
50,0.5,2.0,84.53545850000228,85.01943399998709,85.01943399998709,85.0361318999785,85.31943169998704,right,1,2.0,1,0.6483047000074293,0001,001,2023-09-07_07h58.12.472,Adaptive staircase procedure,2023.1.3,60.2059283659444,
51,0.5,2.0,85.68700939998962,86.18713269999716,86.18713269999716,86.18713269999716,86.48733709999942,right,1,2.0,1,0.7578304999915417,0001,001,2023-09-07_07h58.12.472,Adaptive staircase procedure,2023.1.3,60.2059283659444,
52,0.5,2.0,86.97176190000027,87.47198729999945,87.47198729999945,87.47198729999945,87.77243479999015,right,1,2.0,1,0.7781237000017427,0001,001,2023-09-07_07h58.12.472,Adaptive staircase procedure,2023.1.3,60.2059283659444,
53,0.5,1.5,88.2733471999818,88.7568018999882,88.7568018999882,88.77360899999621,89.05706729998928,left,1,-1.5,1,0.6746960000018589,0001,001,2023-09-07_07h58.12.472,Adaptive staircase procedure,2023.1.3,60.2059283659444,
54,0.5,1.5,89.45743869998842,89.95799080000143,89.95799080000143,89.95799080000143,90.25841619999846,right,1,1.5,1,0.753093400009675,0001,001,2023-09-07_07h58.12.472,Adaptive staircase procedure,2023.1.3,60.2059283659444,
55,0.5,1.5,90.7425491999893,91.24200189998373,91.24200189998373,91.24200189998373,91.542360499996,right,1,1.5,1,0.9564351000008173,0001,001,2023-09-07_07h58.12.472,Adaptive staircase procedure,2023.1.3,60.2059283659444,
56,0.5,1.0,92.22718929999974,92.71081049999339,92.71081049999339,92.72793509997427,93.01158939997549,left,1,-1.0,1,0.7680651000118814,0001,001,2023-09-07_07h58.12.472,Adaptive staircase procedure,2023.1.3,60.2059283659444,
57,0.5,1.0,93.49522369998158,93.99587199999951,93.99587199999951,93.99587199999951,94.29637969998294,right,1,1.0,1,0.8354883999854792,0001,001,2023-09-07_07h58.12.472,Adaptive staircase procedure,2023.1.3,60.2059283659444,
58,0.5,1.0,94.84694149999996,95.347193900001,95.347193900001,95.347193900001,95.64735129999463,left,1,-1.0,1,0.6781787000072654,0001,001,2023-09-07_07h58.12.472,Adaptive staircase procedure,2023.1.3,60.2059283659444,
59,0.5,1.0,96.0480283999932,96.53197279997403,96.53197279997403,96.54859079999733,96.83275599998888,right,1,1.0,1,0.7040016999817453,0001,001,2023-09-07_07h58.12.472,Adaptive staircase procedure,2023.1.3,60.2059283659444,
60,0.5,1.0,97.2663087999972,97.75018619999173,97.75018619999173,97.76686599999084,98.05005209997762,left,1,-1.0,1,0.8168053999834228,0001,001,2023-09-07_07h58.12.472,Adaptive staircase procedure,2023.1.3,60.2059283659444,
61,0.5,1.0,98.58450639998773,99.0850096999784,99.0850096999784,99.0850096999784,99.38487929999246,left,1,-1.0,1,0.7986288999964017,0001,001,2023-09-07_07h58.12.472,Adaptive staircase procedure,2023.1.3,60.2059283659444,
62,0.5,1.0,99.90230599997449,100.38667129998794,100.38667129998794,100.4029136999743,100.68681899999501,right,1,1.0,1,0.6924195000028703,0001,001,2023-09-07_07h58.12.472,Adaptive staircase procedure,2023.1.3,60.2059283659444,
63,0.5,1.0,101.10367429998587,101.58748269997886,101.58748269997886,101.60427889999119,101.88751269999193,right,1,1.0,1,0.6470468000043184,0001,001,2023-09-07_07h58.12.472,Adaptive staircase procedure,2023.1.3,60.2059283659444,
64,0.5,1.0,102.25551039999118,102.73899149999488,102.73899149999488,102.75512419998995,103.03894509997917,left,1,-1.0,1,0.6400033999816515,0001,001,2023-09-07_07h58.12.472,Adaptive staircase procedure,2023.1.3,60.2059283659444,
65,0.5,1.0,103.40640669999993,103.90681939999922,103.90681939999922,103.90681939999922,104.20726869997452,right,1,1.0,1,0.7247349000244867,0001,001,2023-09-07_07h58.12.472,Adaptive staircase procedure,2023.1.3,60.2059283659444,
66,0.5,1.0,104.65750729999854,105.15811059999396,105.15811059999396,105.15811059999396,105.45830949998344,left,1,-1.0,1,0.6681541000143625,0001,001,2023-09-07_07h58.12.472,Adaptive staircase procedure,2023.1.3,60.2059283659444,
67,0.5,1.0,105.85870959999738,106.34278019997873,106.34278019997873,106.35938359997817,106.64299059999757,right,1,1.0,1,0.7150468000036199,0001,001,2023-09-07_07h58.12.472,Adaptive staircase procedure,2023.1.3,60.2059283659444,
68,0.5,1.0,107.07716169999912,107.56086619998678,107.56086619998678,107.57751599999028,107.86066459998256,right,1,1.0,1,0.6206875999923795,0001,001,2023-09-07_07h58.12.472,Adaptive staircase procedure,2023.1.3,60.2059283659444,
69,0.5,1.0,108.21158779997495,108.695576899976,108.695576899976,108.71199279997381,108.99556349997874,left,1,-1.0,1,0.6723917999770492,0001,001,2023-09-07_07h58.12.472,Adaptive staircase procedure,2023.1.3,60.2059283659444,
70,0.5,1.0,109.39623899999424,109.8968440000026,109.8968440000026,109.8968440000026,110.19710150000174,right,0,1.0,0,1.1478826999955345,0001,001,2023-09-07_07h58.12.472,Adaptive staircase procedure,2023.1.3,60.2059283659444,
71,0.5,1.5,111.06451239998569,111.56527900000219,111.56527900000219,111.56527900000219,111.86535749997711,left,1,-1.5,1,0.6556083000032231,0001,001,2023-09-07_07h58.12.472,Adaptive staircase procedure,2023.1.3,60.2059283659444,
72,0.5,1.5,112.2489968999871,112.75002839998342,112.75002839998342,112.75002839998342,113.05018189997645,left,1,-1.5,1,0.5962643000239041,0001,001,2023-09-07_07h58.12.472,Adaptive staircase procedure,2023.1.3,60.2059283659444,
73,0.5,1.5,113.36717659997521,113.85100299998885,113.85100299998885,113.86755789999734,114.1513649999979,left,1,-1.5,1,0.6609638000081759,0001,001,2023-09-07_07h58.12.472,Adaptive staircase procedure,2023.1.3,60.2059283659444,
74,0.5,1.0,114.53502099998877,115.03586119998363,115.03586119998363,115.03586119998363,115.33907459999318,right,1,1.0,1,0.6758929999778047,0001,001,2023-09-07_07h58.12.472,Adaptive staircase procedure,2023.1.3,60.2059283659444,
75,0.5,1.0,115.73624259998905,116.23711249997723,116.23711249997723,116.23711249997723,116.53736789998948,left,1,-1.0,1,0.6766411999997217,0001,001,2023-09-07_07h58.12.472,Adaptive staircase procedure,2023.1.3,60.2059283659444,
76,0.5,1.0,116.93765589999384,117.438311099977,117.438311099977,117.438311099977,117.73872439999832,left,1,-1.0,1,0.6602998999878764,0001,001,2023-09-07_07h58.12.472,Adaptive staircase procedure,2023.1.3,60.2059283659444,
77,0.5,1.0,118.12210079998476,118.62290989997564,118.62290989997564,118.62290989997564,118.92320009999094,right,0,1.0,0,0.7109454000019468,0001,001,2023-09-07_07h58.12.472,Adaptive staircase procedure,2023.1.3,60.2059283659444,
78,0.5,1.5,119.35767609998584,119.85764139998355,119.85764139998355,119.85764139998355,120.15805259998888,left,1,-1.5,1,0.6467986999778077,0001,001,2023-09-07_07h58.12.472,Adaptive staircase procedure,2023.1.3,60.2059283659444,
79,0.5,1.5,120.5249362999748,121.00888799998211,121.00888799998211,121.02562539998326,121.3091235999891,right,0,1.5,0,0.6149281999969389,0001,001,2023-09-07_07h58.12.472,Adaptive staircase procedure,2023.1.3,60.2059283659444,
80,0.5,2.0,121.64286459999857,122.14342199999373,122.14342199999373,122.14342199999373,122.44352139998227,right,0,2.0,0,0.8372478999954183,0001,001,2023-09-07_07h58.12.472,Adaptive staircase procedure,2023.1.3,60.2059283659444,
81,0.5,2.5,123.01115589999245,123.51157549998607,123.51157549998607,123.51157549998607,123.81177249999018,right,1,2.5,1,0.9352434000174981,0001,001,2023-09-07_07h58.12.472,Adaptive staircase procedure,2023.1.3,60.2059283659444,
82,0.5,2.5,124.4792741999845,124.96404359998996,124.96404359998996,124.98014289999264,125.26377449999563,right,1,2.5,1,1.6327119000197854,0001,001,2023-09-07_07h58.12.472,Adaptive staircase procedure,2023.1.3,60.2059283659444,
83,0.5,2.5,126.61541609998676,127.11560629997985,127.11560629997985,127.11560629997985,127.41539999999804,right,1,2.5,1,0.6982720000087284,0001,001,2023-09-07_07h58.12.472,Adaptive staircase procedure,2023.1.3,60.2059283659444,
84,0.5,2.0,127.83359389999532,128.31677009997657,128.31677009997657,128.33362819999456,128.61712679997436,left,1,-2.0,1,0.66281650000019,0001,001,2023-09-07_07h58.12.472,Adaptive staircase procedure,2023.1.3,60.2059283659444,
85,0.5,2.0,129.00069200000144,129.4849555999972,129.4849555999972,129.50143759997445,129.7851996999816,right,0,2.0,0,0.9157111000095028,0001,001,2023-09-07_07h58.12.472,Adaptive staircase procedure,2023.1.3,60.2059283659444,
86,0.5,2.5,130.41939679998904,130.91958929999964,130.91958929999964,130.91958929999964,131.2201962999825,right,1,2.5,1,0.721071399981156,0001,001,2023-09-07_07h58.12.472,Adaptive staircase procedure,2023.1.3,60.2059283659444,
87,0.5,2.5,131.67055719997734,132.17118489998393,132.17118489998393,132.17118489998393,132.47135139998863,left,1,-2.5,1,0.6642346000007819,0001,001,2023-09-07_07h58.12.472,Adaptive staircase procedure,2023.1.3,60.2059283659444,
88,0.5,2.5,132.8551825999748,133.3559739999764,133.3559739999764,133.3559739999764,133.65590439998778,right,1,2.5,1,0.6711674999969546,0001,001,2023-09-07_07h58.12.472,Adaptive staircase procedure,2023.1.3,60.2059283659444,
89,0.5,2.0,134.05674010000075,134.54027859997586,134.54027859997586,134.55702859998564,134.84074509999482,left,1,-2.0,1,0.6222976999997627,0001,001,2023-09-07_07h58.12.472,Adaptive staircase procedure,2023.1.3,60.2059283659444,
90,0.5,2.0,135.19116759998724,135.69180939998478,135.69180939998478,135.69180939998478,135.99216719999094,right,1,2.0,1,0.6152383000007831,0001,001,2023-09-07_07h58.12.472,Adaptive staircase procedure,2023.1.3,60.2059283659444,
91,0.5,2.0,136.3257547999965,136.82619349999004,136.82619349999004,136.82619349999004,137.1275592999882,left,1,-2.0,1,0.6571264999802224,0001,001,2023-09-07_07h58.12.472,Adaptive staircase procedure,2023.1.3,60.2059283659444,
92,0.5,1.5,137.5102043999941,137.99422669998603,137.99422669998603,138.01069529997767,138.2945456999878,right,1,1.5,1,0.8142528999887872,0001,001,2023-09-07_07h58.12.472,Adaptive staircase procedure,2023.1.3,60.2059283659444,
93,0.5,1.5,138.8289220999868,139.32915789997787,139.32915789997787,139.32915789997787,139.6295201999892,left,1,-1.5,1,0.6356237000145484,0001,001,2023-09-07_07h58.12.472,Adaptive staircase procedure,2023.1.3,60.2059283659444,
94,0.5,1.5,139.99650879998808,140.48015299998224,140.48015299998224,140.49702739997883,140.78076339999097,left,1,-1.5,1,0.6339486000069883,0001,001,2023-09-07_07h58.12.472,Adaptive staircase procedure,2023.1.3,60.2059283659444,
95,0.5,1.0,141.13061269998434,141.631525099976,141.631525099976,141.631525099976,141.93180039999424,left,1,-1.0,1,0.6791182000015397,0001,001,2023-09-07_07h58.12.472,Adaptive staircase procedure,2023.1.3,60.2059283659444,
96,0.5,1.0,142.3322257999971,142.81612569998833,142.81612569998833,142.83308909999323,143.11664100000053,left,1,-1.0,1,0.7299767000076827,0001,001,2023-09-07_07h58.12.472,Adaptive staircase procedure,2023.1.3,60.2059283659444,
97,0.5,1.0,143.5671655999904,144.0510787999956,144.0510787999956,144.06732409997494,144.3512297999987,left,1,-1.0,1,0.7347174000169616,0001,001,2023-09-07_07h58.12.472,Adaptive staircase procedure,2023.1.3,60.2059283659444,
98,0.5,1.0,144.80196899999282,145.3022146000003,145.3022146000003,145.3022146000003,145.60266839998076,right,0,1.0,0,0.7953540000016801,0001,001,2023-09-07_07h58.12.472,Adaptive staircase procedure,2023.1.3,60.2059283659444,
99,0.5,1.5,146.11984839997604,146.62033819998032,146.62033819998032,146.62033819998032,146.920847100002,left,1,-1.5,1,0.77806340000825,0001,001,2023-09-07_07h58.12.472,Adaptive staircase procedure,2023.1.3,60.2059283659444,
100,0.5,1.5,147.42110259999754,147.92217389997677,147.92217389997677,147.92217389997677,148.22199659998296,left,1,-1.5,1,0.9891950000019278,0001,001,2023-09-07_07h58.12.472,Adaptive staircase procedure,2023.1.3,60.2059283659444,
101,0.5,1.5,148.93949779999093,149.42331769998418,149.42331769998418,149.43996659998083,149.72401989999344,right,1,1.5,1,1.0691037999931723,0001,001,2023-09-07_07h58.12.472,Adaptive staircase procedure,2023.1.3,60.2059283659444,
102,0.5,1.0,150.52465519998805,151.0085384999984,151.0085384999984,151.02519819998997,151.30847229997744,right,1,1.0,1,0.7503063999756705,0001,001,2023-09-07_07h58.12.472,Adaptive staircase procedure,2023.1.3,60.2059283659444,
103,0.5,1.0,151.77599609998288,152.27666659999522,152.27666659999522,152.27666659999522,152.577011699992,left,1,-1.0,1,0.7682956000207923,0001,001,2023-09-07_07h58.12.472,Adaptive staircase procedure,2023.1.3,60.2059283659444,
104,0.5,1.0,153.0772478999861,153.5613121999777,153.5613121999777,153.5780553999939,153.86135639998247,left,1,-1.0,1,0.6286340999940876,0001,001,2023-09-07_07h58.12.472,Adaptive staircase procedure,2023.1.3,60.2059283659444,
105,0.5,1.0,154.21198439999716,154.69589549998636,154.69589549998636,154.71290339998086,154.99620819999836,right,1,1.0,1,0.7605365000199527,0001,001,2023-09-07_07h58.12.472,Adaptive staircase procedure,2023.1.3,60.2059283659444,
106,0.5,1.0,155.48014679999324,155.9651034999988,155.9651034999988,155.98047929999302,156.2644672000024,left,1,-1.0,1,0.7167882000212558,0001,001,2023-09-07_07h58.12.472,Adaptive staircase procedure,2023.1.3,60.2059283659444,
107,0.5,1.0,156.69820699997945,157.1986357999849,157.1986357999849,157.1986357999849,157.49888569998438,left,1,-1.0,1,0.830382499989355,0001,001,2023-09-07_07h58.12.472,Adaptive staircase procedure,2023.1.3,60.2059283659444,
108,0.5,1.0,158.0498254999984,158.53356109999004,158.53356109999004,158.5500070999842,158.83408429997507,left,1,-1.0,1,0.9152504999947269,0001,001,2023-09-07_07h58.12.472,Adaptive staircase procedure,2023.1.3,60.2059283659444,
109,0.5,1.0,159.4678371999762,159.95177689997945,159.95177689997945,159.9681711999874,160.25197039998602,right,1,1.0,1,0.8793353000073694,0001,001,2023-09-07_07h58.12.472,Adaptive staircase procedure,2023.1.3,60.2059283659444,
110,0.5,1.0,160.85259569998016,161.33679319999646,161.33679319999646,161.3536775999819,161.63717549998546,right,1,1.0,1,0.6545742999878712,0001,001,2023-09-07_07h58.12.472,Adaptive staircase procedure,2023.1.3,60.2059283659444,
111,0.5,1.0,162.02069529998698,162.52101279998897,162.52101279998897,162.52101279998897,162.8212291999953,left,1,-1.0,1,0.6410420000029262,0001,001,2023-09-07_07h58.12.472,Adaptive staircase procedure,2023.1.3,60.2059283659444,
112,0.5,1.0,163.1886939999822,163.67232719997992,163.67232719997992,163.68938699999126,163.97308060000069,left,1,-1.0,1,0.6691782000125386,0001,001,2023-09-07_07h58.12.472,Adaptive staircase procedure,2023.1.3,60.2059283659444,
113,0.5,1.0,164.37252249999437,164.8728631999984,164.8728631999984,164.8728631999984,165.17426780000096,right,0,1.0,0,0.9205595999956131,0001,001,2023-09-07_07h58.12.472,Adaptive staircase procedure,2023.1.3,60.2059283659444,
114,0.5,1.5,165.82488449997618,166.30863210000098,166.30863210000098,166.3251861000026,166.60891999999876,left,1,-1.5,1,0.6860383000166621,0001,001,2023-09-07_07h58.12.472,Adaptive staircase procedure,2023.1.3,60.2059283659444,
115,0.5,1.5,167.02599349999218,167.52682209998602,167.52682209998602,167.52682209998602,167.82706019998295,right,1,1.5,1,0.7037635000015143,0001,001,2023-09-07_07h58.12.472,Adaptive staircase procedure,2023.1.3,60.2059283659444,
116,0.5,1.5,168.26088439999148,168.74471569998423,168.74471569998423,168.76148289997946,169.0454633999907,left,1,-1.5,1,0.6461343999835663,0001,001,2023-09-07_07h58.12.472,Adaptive staircase procedure,2023.1.3,60.2059283659444,
117,0.5,1.0,169.4122487999848,169.89605159999337,169.89605159999337,169.9130223999964,170.19649399997434,left,1,-1.0,1,0.6346455999882892,0001,001,2023-09-07_07h58.12.472,Adaptive staircase procedure,2023.1.3,60.2059283659444,
118,0.5,1.0,170.56318369999644,171.0470984999847,171.0470984999847,171.0640018999984,171.34723489999305,right,0,1.0,0,0.6891630000027362,0001,001,2023-09-07_07h58.12.472,Adaptive staircase procedure,2023.1.3,60.2059283659444,
119,0.5,1.5,171.7643372999737,172.24852389999432,172.24852389999432,172.2652567999903,172.5488842999912,right,1,1.5,1,0.7492828000104055,0001,001,2023-09-07_07h58.12.472,Adaptive staircase procedure,2023.1.3,60.2059283659444,
120,0.5,1.5,173.015706199978,173.51681789997383,173.51681789997383,173.51681789997383,173.8172166000004,left,1,-1.5,1,0.46064239999395795,0001,001,2023-09-07_07h58.12.472,Adaptive staircase procedure,2023.1.3,60.2059283659444,
121,0.5,1.5,174.00108219997492,174.48406899999827,174.48406899999827,174.50094959998387,174.78504930000054,right,1,1.5,1,0.6941900000092573,0001,001,2023-09-07_07h58.12.472,Adaptive staircase procedure,2023.1.3,60.2059283659444,
122,0.5,1.0,175.20164519999526,175.7027640999877,175.7027640999877,175.7027640999877,176.00274879997596,left,1,-1.0,1,0.6260651999909896,0001,001,2023-09-07_07h58.12.472,Adaptive staircase procedure,2023.1.3,60.2059283659444,
123,0.5,1.0,176.3531820999924,176.85339209999074,176.85339209999074,176.85339209999074,177.15390609999304,right,0,1.0,0,0.7153349999862257,0001,001,2023-09-07_07h58.12.472,Adaptive staircase procedure,2023.1.3,60.2059283659444,
124,0.5,1.5,177.58784969997942,178.08824589999858,178.08824589999858,178.08824589999858,178.38856120000128,left,1,-1.5,1,0.6268099000153597,0001,001,2023-09-07_07h58.12.472,Adaptive staircase procedure,2023.1.3,60.2059283659444,
125,0.5,1.5,178.73898969998118,179.23976979998406,179.23976979998406,179.23976979998406,179.53975309999078,right,1,1.5,1,0.8104429999948479,0001,001,2023-09-07_07h58.12.472,Adaptive staircase procedure,2023.1.3,60.2059283659444,
126,0.5,1.5,180.074071799987,180.55770639999537,180.55770639999537,180.57459789997665,180.8580101999978,right,0,1.5,0,0.8345775000052527,0001,001,2023-09-07_07h58.12.472,Adaptive staircase procedure,2023.1.3,60.2059283659444,
127,0.5,2.0,181.40885300000082,181.90895489999093,181.90895489999093,181.90895489999093,182.20947659999365,left,1,-2.0,1,0.6834111999778543,0001,001,2023-09-07_07h58.12.472,Adaptive staircase procedure,2023.1.3,60.2059283659444,
128,0.5,2.0,182.610039399995,183.11061459998018,183.11061459998018,183.11061459998018,183.4107874999754,right,1,2.0,1,0.6568819000094663,0001,001,2023-09-07_07h58.12.472,Adaptive staircase procedure,2023.1.3,60.2059283659444,
129,0.5,2.0,183.79464859998552,184.2953342999972,184.2953342999972,184.2953342999972,184.5953615999897,right,1,2.0,1,0.5939523999986704,0001,001,2023-09-07_07h58.12.472,Adaptive staircase procedure,2023.1.3,60.2059283659444,
130,0.5,1.5,184.91284730000189,185.39650619999156,185.39650619999156,185.4130619999778,185.69659199999296,left,1,-1.5,1,0.5363679000001866,0001,001,2023-09-07_07h58.12.472,Adaptive staircase procedure,2023.1.3,60.2059283659444,
131,0.5,1.5,185.96368549999897,186.44750169999315,186.44750169999315,186.46451900000102,186.74784830000135,right,0,1.5,0,0.9121061000041664,0001,001,2023-09-07_07h58.12.472,Adaptive staircase procedure,2023.1.3,60.2059283659444,
132,0.5,2.0,187.38206509998417,187.8656701,187.8656701,187.88265039998805,188.16606639997917,right,1,2.0,1,0.6549705000070389,0001,001,2023-09-07_07h58.12.472,Adaptive staircase procedure,2023.1.3,60.2059283659444,
133,0.5,2.0,188.5498805999814,189.0333960999851,189.0333960999851,189.050162599975,189.33396869999706,left,1,-2.0,1,0.7936537000059616,0001,001,2023-09-07_07h58.12.472,Adaptive staircase procedure,2023.1.3,60.2059283659444,
134,0.5,2.0,189.85113109997474,190.33507579998695,190.33507579998695,190.3521280999994,190.63522659998853,left,1,-2.0,1,0.8176541000138968,0001,001,2023-09-07_07h58.12.472,Adaptive staircase procedure,2023.1.3,60.2059283659444,
135,0.5,1.5,191.16925729997456,191.66984979997505,191.66984979997505,191.66984979997505,191.9703563999792,left,1,-1.5,1,0.8190311999933328,0001,001,2023-09-07_07h58.12.472,Adaptive staircase procedure,2023.1.3,60.2059283659444,
136,0.5,1.5,192.52065269998275,193.02136449998943,193.02136449998943,193.02136449998943,193.32159829998272,left,1,-1.5,1,0.7292136999894865,0001,001,2023-09-07_07h58.12.472,Adaptive staircase procedure,2023.1.3,60.2059283659444,
137,0.5,1.5,193.7722894999897,194.27287109999452,194.27287109999452,194.27287109999452,194.57339759997558,right,1,1.5,1,0.6338733999873511,0001,001,2023-09-07_07h58.12.472,Adaptive staircase procedure,2023.1.3,60.2059283659444,
138,0.5,1.0,194.92373179999413,195.4243002999865,195.4243002999865,195.4243002999865,195.72446869997657,left,0,-1.0,0,1.2403478000196628,0001,001,2023-09-07_07h58.12.472,Adaptive staircase procedure,2023.1.3,60.2059283659444,
139,0.5,1.5,196.69185469998047,197.17612009998993,197.17612009998993,197.1927619999915,197.47630149999168,right,1,1.5,1,0.7491587999975309,0001,001,2023-09-07_07h58.12.472,Adaptive staircase procedure,2023.1.3,60.2059283659444,
140,0.5,1.5,197.94338079998852,198.4441577999969,198.4441577999969,198.4441577999969,198.74435419999645,right,1,1.5,1,0.6665880000218749,0001,001,2023-09-07_07h58.12.472,Adaptive staircase procedure,2023.1.3,60.2059283659444,
141,0.5,1.5,199.12846889998764,199.62882509999326,199.62882509999326,199.62882509999326,199.9290595999919,left,1,-1.5,1,0.5622930999961682,0001,001,2023-09-07_07h58.12.472,Adaptive staircase procedure,2023.1.3,60.2059283659444,
142,0.5,1.0,200.2126874999958,200.71324729998014,200.71324729998014,200.71324729998014,201.01334309999947,left,1,-1.0,1,0.68886829999974,0001,001,2023-09-07_07h58.12.472,Adaptive staircase procedure,2023.1.3,60.2059283659444,
143,0.5,1.0,201.43108839998604,201.9311929999967,201.9311929999967,201.9311929999967,202.23189479997382,right,0,1.0,0,0.631594500009669,0001,001,2023-09-07_07h58.12.472,Adaptive staircase procedure,2023.1.3,60.2059283659444,
144,0.5,1.5,202.58179409999866,203.08251419998123,203.08251419998123,203.08251419998123,203.38277919997927,right,1,1.5,1,0.7856007000082172,0001,001,2023-09-07_07h58.12.472,Adaptive staircase procedure,2023.1.3,60.2059283659444,
145,0.5,1.5,203.90004259999841,204.38391059997957,204.38391059997957,204.40066119999392,204.68427699999302,right,1,1.5,1,0.7603822000091895,0001,001,2023-09-07_07h58.12.472,Adaptive staircase procedure,2023.1.3,60.2059283659444,
146,0.5,1.5,205.16813779997756,205.66883270000108,205.66883270000108,205.66883270000108,205.96920029999455,left,1,-1.5,1,0.6012647000025027,0001,001,2023-09-07_07h58.12.472,Adaptive staircase procedure,2023.1.3,60.2059283659444,
147,0.5,1.0,206.3027547999809,206.7865618999931,206.7865618999931,206.80327350000152,207.08700359999784,left,1,-1.0,1,0.5239995000010822,0001,001,2023-09-07_07h58.12.472,Adaptive staircase procedure,2023.1.3,60.2059283659444,
148,0.5,1.0,207.3372323999938,207.83761829999276,207.83761829999276,207.83761829999276,208.13797119999072,right,0,1.0,0,0.8377057000179775,0001,001,2023-09-07_07h58.12.472,Adaptive staircase procedure,2023.1.3,60.2059283659444,
149,0.5,1.5,208.705120300001,209.20577319999575,209.20577319999575,209.20577319999575,209.506627499999,right,1,1.5,1,1.1833471000136342,0001,001,2023-09-07_07h58.12.472,Adaptive staircase procedure,2023.1.3,60.2059283659444,
150,0.5,1.5,210.4077746999974,210.89113239999278,210.89113239999278,210.90748269998585,211.1915627999988,left,1,-1.5,1,0.6122511999856215,0001,001,2023-09-07_07h58.12.472,Adaptive staircase procedure,2023.1.3,60.2059283659444,
151,0.5,1.5,211.52514289997634,212.02576119999867,212.02576119999867,212.02576119999867,212.32596519999788,left,1,-1.5,1,0.5831737999978941,0001,001,2023-09-07_07h58.12.472,Adaptive staircase procedure,2023.1.3,60.2059283659444,
152,0.5,1.0,212.6264876999776,213.12673389998963,213.12673389998963,213.12673389998963,213.42708619998302,right,0,1.0,0,1.1405866999994032,0001,001,2023-09-07_07h58.12.472,Adaptive staircase procedure,2023.1.3,60.2059283659444,
153,0.5,1.5,214.29490859998623,214.77903289999813,214.77903289999813,214.79575429999386,215.07906150000053,left,1,-1.5,1,0.6594210999901406,0001,001,2023-09-07_07h58.12.472,Adaptive staircase procedure,2023.1.3,60.2059283659444,
154,0.5,1.5,215.46279639998102,215.9466373999894,215.9466373999894,215.9643135999795,216.24705969999195,left,1,-1.5,1,0.5167819000198506,0001,001,2023-09-07_07h58.12.472,Adaptive staircase procedure,2023.1.3,60.2059283659444,
155,0.5,1.5,216.48054099999717,216.98107819998404,216.98107819998404,216.98107819998404,217.28110529997502,right,1,1.5,1,1.3966191999788862,0001,001,2023-09-07_07h58.12.472,Adaptive staircase procedure,2023.1.3,60.2059283659444,
156,0.5,1.0,218.39956949997577,218.8842698999797,218.8842698999797,218.90184939999017,219.1844006999745,right,1,1.0,1,0.7876227999804541,0001,001,2023-09-07_07h58.12.472,Adaptive staircase procedure,2023.1.3,60.2059283659444,
157,0.5,1.0,219.70336779998615,220.18609389997437,220.18609389997437,220.203494699992,220.4858949999907,left,1,-1.0,1,0.5926812999823596,0001,001,2023-09-07_07h58.12.472,Adaptive staircase procedure,2023.1.3,60.2059283659444,
158,0.5,1.0,220.8031648999895,221.28629039999214,221.28629039999214,221.30492699999013,221.58677829999942,right,0,1.0,0,1.2899863000202458,0001,001,2023-09-07_07h58.12.472,Adaptive staircase procedure,2023.1.3,60.2059283659444,
159,0.5,1.5,222.60497970000142,223.10499799999525,223.10499799999525,223.10499799999525,223.40554579999298,right,0,1.5,0,0.6413589000003412,0001,001,2023-09-07_07h58.12.472,Adaptive staircase procedure,2023.1.3,60.2059283659444,
160,0.5,2.0,223.77248619997408,224.25637209997512,224.25637209997512,224.2742317999946,224.55698609998217,right,1,2.0,1,0.9430073999974411,0001,001,2023-09-07_07h58.12.472,Adaptive staircase procedure,2023.1.3,60.2059283659444,
161,0.5,2.0,225.22424759998103,225.7243022999901,225.7243022999901,225.7243022999901,226.0246128999861,right,1,2.0,1,0.6618891000107396,0001,001,2023-09-07_07h58.12.472,Adaptive staircase procedure,2023.1.3,60.2059283659444,
162,0.5,2.0,226.4084685999842,226.9085339999874,226.9085339999874,226.9085339999874,227.2092161999899,left,1,-2.0,1,0.6156271999934688,0001,001,2023-09-07_07h58.12.472,Adaptive staircase procedure,2023.1.3,60.2059283659444,
163,0.5,1.5,227.5428820999805,228.043268599984,228.043268599984,228.043268599984,228.34356359997764,right,1,1.5,1,0.9886565000051633,0001,001,2023-09-07_07h58.12.472,Adaptive staircase procedure,2023.1.3,60.2059283659444,
164,0.5,1.5,229.06091209998704,229.56137630000012,229.56137630000012,229.56137630000012,229.86188919999404,left,1,-1.5,1,0.6153057999908924,0001,001,2023-09-07_07h58.12.472,Adaptive staircase procedure,2023.1.3,60.2059283659444,
165,0.5,1.5,230.19583109999076,230.69622610000079,230.69622610000079,230.69622610000079,230.99567659999593,right,1,1.5,1,1.2694263999874238,0001,001,2023-09-07_07h58.12.472,Adaptive staircase procedure,2023.1.3,60.2059283659444,
166,0.5,1.0,231.9964825999923,232.4807587999967,232.4807587999967,232.4972028999764,232.78084099999978,right,1,1.0,1,0.8169748000218533,0001,001,2023-09-07_07h58.12.472,Adaptive staircase procedure,2023.1.3,60.2059283659444,
167,0.5,1.0,233.31459109997377,233.79855429998133,233.79855429998133,233.81611689997953,234.09986649997882,left,1,-1.0,1,0.6048458000004757,0001,001,2023-09-07_07h58.12.472,Adaptive staircase procedure,2023.1.3,60.2059283659444,
168,0.5,1.0,234.43381409998983,234.9174225999741,234.9174225999741,234.93400009998004,235.2177305999794,left,1,-1.0,1,0.5170345999940764,0001,001,2023-09-07_07h58.12.472,Adaptive staircase procedure,2023.1.3,60.2059283659444,
169,0.5,1.0,235.45152729999973,235.95165529998485,235.95165529998485,235.95165529998485,236.2523080999963,right,0,1.0,0,0.8980335999804083,0001,001,2023-09-07_07h58.12.472,Adaptive staircase procedure,2023.1.3,60.2059283659444,
170,0.5,1.5,236.86968639999395,237.37034229998244,237.37034229998244,237.37034229998244,237.67056939998292,right,1,1.5,1,0.6844173999852501,0001,001,2023-09-07_07h58.12.472,Adaptive staircase procedure,2023.1.3,60.2059283659444,
171,0.5,1.5,238.07124540000223,238.57174329998088,238.57174329998088,238.57174329998088,238.87220119999256,left,1,-1.5,1,0.6141215999959968,0001,001,2023-09-07_07h58.12.472,Adaptive staircase procedure,2023.1.3,60.2059283659444,
172,0.5,1.5,239.2056418999855,239.68932959999074,239.68932959999074,239.70567609998398,239.9896405999898,left,1,-1.5,1,0.7484825999999885,0001,001,2023-09-07_07h58.12.472,Adaptive staircase procedure,2023.1.3,60.2059283659444,
173,0.5,1.0,240.4566609999747,240.95743349997792,240.95743349997792,240.95743349997792,241.2579767999996,right,1,1.0,1,0.654121400002623,0001,001,2023-09-07_07h58.12.472,Adaptive staircase procedure,2023.1.3,60.2059283659444,
174,0.5,1.0,241.64150759999757,242.14215749999858,242.14215749999858,242.14215749999858,242.44236239997554,left,1,-1.0,1,0.6306497000041418,0001,001,2023-09-07_07h58.12.472,Adaptive staircase procedure,2023.1.3,60.2059283659444,
175,0.5,1.0,242.7930892999866,243.27681859998847,243.27681859998847,243.29336299997522,243.57730049997917,right,0,1.0,0,0.7345866000105161,0001,001,2023-09-07_07h58.12.472,Adaptive staircase procedure,2023.1.3,60.2059283659444,
176,0.5,1.5,244.02738449999015,244.52802299999166,244.52802299999166,244.52802299999166,244.82896439998876,left,1,-1.5,1,0.6307340000057593,0001,001,2023-09-07_07h58.12.472,Adaptive staircase procedure,2023.1.3,60.2059283659444,
177,0.5,1.5,245.17876369997975,245.67933829998947,245.67933829998947,245.67933829998947,245.97936209998443,right,0,1.5,0,0.8570362000027671,0001,001,2023-09-07_07h58.12.472,Adaptive staircase procedure,2023.1.3,60.2059283659444,
178,0.5,2.0,246.56369099998847,247.04758009998477,247.04758009998477,247.06402319998597,247.34756019999622,left,1,-2.0,1,0.6588835000002291,0001,001,2023-09-07_07h58.12.472,Adaptive staircase procedure,2023.1.3,60.2059283659444,
179,0.5,2.0,247.731595499994,248.23196169998846,248.23196169998846,248.23196169998846,248.5325469999807,right,1,2.0,1,0.6996111999906134,0001,001,2023-09-07_07h58.12.472,Adaptive staircase procedure,2023.1.3,60.2059283659444,
180,0.5,2.0,248.94952369999373,249.45029059998342,249.45029059998342,249.45029059998342,249.7506783999852,right,1,2.0,1,0.5861655999906361,0001,001,2023-09-07_07h58.12.472,Adaptive staircase procedure,2023.1.3,60.2059283659444,
181,0.5,1.5,250.0672783999762,250.55148229998304,250.55148229998304,250.56804129999364,250.85202179997577,left,1,-1.5,1,0.5001974000188056,0001,001,2023-09-07_07h58.12.472,Adaptive staircase procedure,2023.1.3,60.2059283659444,
182,0.5,1.5,251.06849889998557,251.56946529998095,251.56946529998095,251.56946529998095,251.8694042999996,left,1,-1.5,1,0.623564500012435,0001,001,2023-09-07_07h58.12.472,Adaptive staircase procedure,2023.1.3,60.2059283659444,
183,0.5,1.5,252.22000339999795,252.72042689999216,252.72042689999216,252.72042689999216,253.0213127999741,left,1,-1.5,1,0.7896989000146277,0001,001,2023-09-07_07h58.12.472,Adaptive staircase procedure,2023.1.3,60.2059283659444,
184,0.5,1.0,253.53825799998594,254.0386787999887,254.0386787999887,254.0386787999887,254.3385694999888,right,0,1.0,0,0.6258689999813214,0001,001,2023-09-07_07h58.12.472,Adaptive staircase procedure,2023.1.3,60.2059283659444,
185,0.5,1.5,254.68974949998665,255.17321459998493,255.17321459998493,255.19094589998713,255.47332419999293,right,1,1.5,1,1.2399697999935597,0001,001,2023-09-07_07h58.12.472,Adaptive staircase procedure,2023.1.3,60.2059283659444,
186,0.5,1.5,256.44126929997583,256.9250591000018,256.9250591000018,256.941671699984,257.2253629999759,left,1,-1.5,1,0.6482931000064127,0001,001,2023-09-07_07h58.12.472,Adaptive staircase procedure,2023.1.3,60.2059283659444,
187,0.5,1.5,257.592270299996,258.0930511999759,258.0930511999759,258.0930511999759,258.3932800999901,left,1,-1.5,1,0.5557141000172123,0001,001,2023-09-07_07h58.12.472,Adaptive staircase procedure,2023.1.3,60.2059283659444,
188,0.5,1.0,258.6773331000004,259.1609139999782,259.1609139999782,259.1774654999899,259.46091119997436,left,1,-1.0,1,0.6381719000055455,0001,001,2023-09-07_07h58.12.472,Adaptive staircase procedure,2023.1.3,60.2059283659444,
189,0.5,1.0,259.8283854999754,260.31208229999174,260.31208229999174,260.3285767999769,260.6121223999944,right,1,1.0,1,0.5772115000290796,0001,001,2023-09-07_07h58.12.472,Adaptive staircase procedure,2023.1.3,60.2059283659444,
190,0.5,1.0,260.9137734999822,261.39673049998237,261.39673049998237,261.413384399988,261.6970194999885,right,1,1.0,1,1.1807641000195872,0001,001,2023-09-07_07h58.12.472,Adaptive staircase procedure,2023.1.3,60.2059283659444,
191,0.5,1.0,262.59815859998344,263.098520599975,263.098520599975,263.098520599975,263.3986508999951,left,1,-1.0,1,0.6089293000113685,0001,001,2023-09-07_07h58.12.472,Adaptive staircase procedure,2023.1.3,60.2059283659444,
192,0.5,1.0,263.733007599978,264.23304549997556,264.23304549997556,264.23304549997556,264.5334033999825,right,0,1.0,0,1.1620374000049196,0001,001,2023-09-07_07h58.12.472,Adaptive staircase procedure,2023.1.3,60.2059283659444,
193,0.5,1.5,265.4178401999816,265.9017512999999,265.9017512999999,265.9186297999986,266.2020253999799,left,1,-1.5,1,0.6700994000129867,0001,001,2023-09-07_07h58.12.472,Adaptive staircase procedure,2023.1.3,60.2059283659444,
194,0.5,1.5,266.60245209999266,267.1029743999825,267.1029743999825,267.1029743999825,267.40356199999223,left,1,-1.5,1,0.5188131000031717,0001,001,2023-09-07_07h58.12.472,Adaptive staircase procedure,2023.1.3,60.2059283659444,
195,0.5,1.5,267.65366240000003,268.15409519997775,268.15409519997775,268.15409519997775,268.4545401999785,right,0,1.5,0,0.7576139000011608,0001,001,2023-09-07_07h58.12.472,Adaptive staircase procedure,2023.1.3,60.2059283659444,
196,0.5,2.0,268.93820569998934,269.42230459998245,269.42230459998245,269.4387146999943,269.72239329997683,left,1,-2.0,1,0.6612563999951817,0001,001,2023-09-07_07h58.12.472,Adaptive staircase procedure,2023.1.3,60.2059283659444,
197,0.5,2.0,270.10633249999955,270.59020399997826,270.59020399997826,270.60685179999564,270.89020989998244,left,1,-2.0,1,0.6321152999880724,0001,001,2023-09-07_07h58.12.472,Adaptive staircase procedure,2023.1.3,60.2059283659444,
198,0.5,2.0,271.240836699988,271.7417116999859,271.7417116999859,271.7417116999859,272.04153809999116,right,0,2.0,0,0.9890370999928564,0001,001,2023-09-07_07h58.12.472,Adaptive staircase procedure,2023.1.3,60.2059283659444,
199,0.5,2.5,272.75904779997654,273.25971399998525,273.25971399998525,273.25971399998525,273.5602202999871,left,1,-2.5,1,0.5851736000040546,0001,001,2023-09-07_07h58.12.472,Adaptive staircase procedure,2023.1.3,60.2059283659444,
