instructions,categoryA,categoryB,leftAttribute,rightAttribute,orStimulus,trial_type,stimulusText,stimulusImage,blocks.thisRepN,blocks.thisTrialN,blocks.thisN,blocks.thisIndex,trials.thisRepN,trials.thisTrialN,trials.thisN,trials.thisIndex,thisRow.t,notes,explicit.started,slider.started,text.started,explicit.stopped,slider.response,slider.rt,instruction.started,instructionsBox.started,leftCategoryLabel_2.started,rightCategoryLabel_2.started,leftAttributeLabel_2.started,rightAttributeLabel_2.started,orLeft_2.started,orRight_2.started,instructionsKey.started,instruction.stopped,trial.started,leftCategoryLabel.started,rightCategoryLabel.started,leftAttributeLabel.started,rightAttributeLabel.started,orLeft.started,orRight.started,stimulusImageBox.started,stimulusTextBox.started,requiredResponse.started,feedbackResponse.started,feedback.started,trial.stopped,requiredResponse.keys,requiredResponse.corr,requiredResponse.rt,requiredResponse.duration,feedbackResponse.keys,feedbackResponse.corr,feedbackResponse.rt,feedbackResponse.duration,end.started,endBox.started,end.stopped,gender,age,participant,date,expName,psychopyVersion,frameRate,expStart,
"Put your middle or index fingers on the E and I keys of your keyboard. Words representing the categories at the top will appear one-by-one in the middle of the screen. When the item belongs to a category on the left, press the E key; when the item belongs to a category on the right, press the I key. Items belong to only one category. If you make an error, an X will appear - fix the error by hitting the other key.

This is a timed sorting task. GO AS FAST AS YOU CAN while making as few mistakes as possible. Going too slow or making too many errors will result in an uninterpretable score. This task will take about 5 minutes to complete.

Press E or I to continue.",Disabled,Abled, , , ,2,text_trial_type_2,img_trial_type_2,0,0,0,0,0,0,0,1,8.546191799920052,,0.018790600122883916,0.06898450013250113,0.06898450013250113,2.9463414000347257,2.9781250000000004,2.8895843999926,2.970720099983737,3.723790599964559,3.723790599964559,3.723790599964559,3.723790599964559,3.723790599964559,3.723790599964559,3.723790599964559,5.710584900109097,8.465131900040433,8.491072400007397,8.546191799920052,8.546191799920052,8.546191799920052,8.546191799920052,8.546191799920052,8.546191799920052,8.829227700131014,8.829227700131014,8.829227700131014,8.829227700131014,8.829227700131014,9.466844199923798,e,1,0.614356999984011,None,None,0,,,,,,female,20,00007,2023-11-30_18h57.53.826,IAT,2023.2.3,59.91755343251639,2023-11-30 18h58.22.395676 +0530,
"Put your middle or index fingers on the E and I keys of your keyboard. Words representing the categories at the top will appear one-by-one in the middle of the screen. When the item belongs to a category on the left, press the E key; when the item belongs to a category on the right, press the I key. Items belong to only one category. If you make an error, an X will appear - fix the error by hitting the other key.

This is a timed sorting task. GO AS FAST AS YOU CAN while making as few mistakes as possible. Going too slow or making too many errors will result in an uninterpretable score. This task will take about 5 minutes to complete.

Press E or I to continue.",Disabled,Abled, , , ,2,text_trial_type_2,img_trial_type_2,0,0,0,0,0,1,1,1,9.497749800095335,,,,,,,,,,,,,,,,,,9.468690800014883,9.497749800095335,9.497749800095335,9.497749800095335,9.497749800095335,9.497749800095335,9.497749800095335,9.781878700014204,9.781878700014204,9.781878700014204,9.781878700014204,9.781878700014204,10.40251010004431,e,1,0.6158611001446843,None,None,0,,,,,,female,20,00007,2023-11-30_18h57.53.826,IAT,2023.2.3,59.91755343251639,2023-11-30 18h58.22.395676 +0530,
"Put your middle or index fingers on the E and I keys of your keyboard. Words representing the categories at the top will appear one-by-one in the middle of the screen. When the item belongs to a category on the left, press the E key; when the item belongs to a category on the right, press the I key. Items belong to only one category. If you make an error, an X will appear - fix the error by hitting the other key.

This is a timed sorting task. GO AS FAST AS YOU CAN while making as few mistakes as possible. Going too slow or making too many errors will result in an uninterpretable score. This task will take about 5 minutes to complete.

Press E or I to continue.",Disabled,Abled, , , ,2,text_trial_type_2,img_trial_type_2,0,0,0,0,1,0,2,1,10.431432700017467,,,,,,,,,,,,,,,,,,10.403950799955055,10.431432700017467,10.431432700017467,10.431432700017467,10.431432700017467,10.431432700017467,10.431432700017467,10.732393200043589,10.732393200043589,10.732393200043589,10.732393200043589,10.732393200043589,11.201139000011608,e,1,0.45465580001473427,None,None,0,,,,,,female,20,00007,2023-11-30_18h57.53.826,IAT,2023.2.3,59.91755343251639,2023-11-30 18h58.22.395676 +0530,
"Put your middle or index fingers on the E and I keys of your keyboard. Words representing the categories at the top will appear one-by-one in the middle of the screen. When the item belongs to a category on the left, press the E key; when the item belongs to a category on the right, press the I key. Items belong to only one category. If you make an error, an X will appear - fix the error by hitting the other key.

This is a timed sorting task. GO AS FAST AS YOU CAN while making as few mistakes as possible. Going too slow or making too many errors will result in an uninterpretable score. This task will take about 5 minutes to complete.

Press E or I to continue.",Disabled,Abled, , , ,1,text_trial_type_1,img_trial_type_1,0,0,0,0,1,1,3,0,11.232246099971235,,,,,,,,,,,,,,,,,,11.202599999960512,11.232246099971235,11.232246099971235,11.232246099971235,11.232246099971235,11.232246099971235,11.232246099971235,11.53355920012109,11.53355920012109,11.53355920012109,11.53355920012109,11.53355920012109,12.137250199913979,i,1,0.5761116000358015,None,None,0,,,,,,female,20,00007,2023-11-30_18h57.53.826,IAT,2023.2.3,59.91755343251639,2023-11-30 18h58.22.395676 +0530,
"Put your middle or index fingers on the E and I keys of your keyboard. Words representing the categories at the top will appear one-by-one in the middle of the screen. When the item belongs to a category on the left, press the E key; when the item belongs to a category on the right, press the I key. Items belong to only one category. If you make an error, an X will appear - fix the error by hitting the other key.

This is a timed sorting task. GO AS FAST AS YOU CAN while making as few mistakes as possible. Going too slow or making too many errors will result in an uninterpretable score. This task will take about 5 minutes to complete.

Press E or I to continue.",Disabled,Abled, , , ,1,text_trial_type_1,img_trial_type_1,0,0,0,0,2,0,4,0,12.1667075001169,,,,,,,,,,,,,,,,,,12.138649299973622,12.1667075001169,12.1667075001169,12.1667075001169,12.1667075001169,12.1667075001169,12.1667075001169,12.46836300007999,12.46836300007999,12.46836300007999,12.46836300007999,12.46836300007999,12.954709199955687,i,1,0.47517170011997223,None,None,0,,,,,,female,20,00007,2023-11-30_18h57.53.826,IAT,2023.2.3,59.91755343251639,2023-11-30 18h58.22.395676 +0530,
"Put your middle or index fingers on the E and I keys of your keyboard. Words representing the categories at the top will appear one-by-one in the middle of the screen. When the item belongs to a category on the left, press the E key; when the item belongs to a category on the right, press the I key. Items belong to only one category. If you make an error, an X will appear - fix the error by hitting the other key.

This is a timed sorting task. GO AS FAST AS YOU CAN while making as few mistakes as possible. Going too slow or making too many errors will result in an uninterpretable score. This task will take about 5 minutes to complete.

Press E or I to continue.",Disabled,Abled, , , ,1,text_trial_type_1,img_trial_type_1,0,0,0,0,2,1,5,0,12.984102600021288,,,,,,,,,,,,,,,,,,12.955721900099888,12.984102600021288,12.984102600021288,12.984102600021288,12.984102600021288,12.984102600021288,12.984102600021288,13.284997600130737,13.284997600130737,13.284997600130737,13.284997600130737,13.284997600130737,13.820831400109455,i,1,0.5040909999515861,None,None,0,,,,,,female,20,00007,2023-11-30_18h57.53.826,IAT,2023.2.3,59.91755343251639,2023-11-30 18h58.22.395676 +0530,
"Put your middle or index fingers on the E and I keys of your keyboard. Words representing the categories at the top will appear one-by-one in the middle of the screen. When the item belongs to a category on the left, press the E key; when the item belongs to a category on the right, press the I key. Items belong to only one category. If you make an error, an X will appear - fix the error by hitting the other key.

This is a timed sorting task. GO AS FAST AS YOU CAN while making as few mistakes as possible. Going too slow or making too many errors will result in an uninterpretable score. This task will take about 5 minutes to complete.

Press E or I to continue.",Disabled,Abled, , , ,2,text_trial_type_2,img_trial_type_2,0,0,0,0,3,0,6,1,13.853056099964306,,,,,,,,,,,,,,,,,,13.82211730000563,13.853056099964306,13.853056099964306,13.853056099964306,13.853056099964306,13.853056099964306,13.853056099964306,14.152676499914378,14.152676499914378,14.152676499914378,14.152676499914378,14.152676499914378,14.690041699912399,e,1,0.508586399955675,None,None,0,,,,,,female,20,00007,2023-11-30_18h57.53.826,IAT,2023.2.3,59.91755343251639,2023-11-30 18h58.22.395676 +0530,
"Put your middle or index fingers on the E and I keys of your keyboard. Words representing the categories at the top will appear one-by-one in the middle of the screen. When the item belongs to a category on the left, press the E key; when the item belongs to a category on the right, press the I key. Items belong to only one category. If you make an error, an X will appear - fix the error by hitting the other key.

This is a timed sorting task. GO AS FAST AS YOU CAN while making as few mistakes as possible. Going too slow or making too many errors will result in an uninterpretable score. This task will take about 5 minutes to complete.

Press E or I to continue.",Disabled,Abled, , , ,2,text_trial_type_2,img_trial_type_2,0,0,0,0,3,1,7,1,14.719942700117826,,,,,,,,,,,,,,,,,,14.691342599922791,14.719942700117826,14.719942700117826,14.719942700117826,14.719942700117826,14.719942700117826,14.719942700117826,15.004530400037766,15.004530400037766,15.004530400037766,15.004530400037766,15.004530400037766,15.59036669996567,e,1,0.552515699993819,None,None,0,,,,,,female,20,00007,2023-11-30_18h57.53.826,IAT,2023.2.3,59.91755343251639,2023-11-30 18h58.22.395676 +0530,
"Put your middle or index fingers on the E and I keys of your keyboard. Words representing the categories at the top will appear one-by-one in the middle of the screen. When the item belongs to a category on the left, press the E key; when the item belongs to a category on the right, press the I key. Items belong to only one category. If you make an error, an X will appear - fix the error by hitting the other key.

This is a timed sorting task. GO AS FAST AS YOU CAN while making as few mistakes as possible. Going too slow or making too many errors will result in an uninterpretable score. This task will take about 5 minutes to complete.

Press E or I to continue.",Disabled,Abled, , , ,1,text_trial_type_1,img_trial_type_1,0,0,0,0,4,0,8,0,15.621140599949285,,,,,,,,,,,,,,,,,,15.59164769994095,15.621140599949285,15.621140599949285,15.621140599949285,15.621140599949285,15.621140599949285,15.621140599949285,15.921516499947757,15.921516499947757,15.921516499947757,15.921516499947757,15.921516499947757,16.49145400011912,i,1,0.5637861001305282,None,None,0,,,,,,female,20,00007,2023-11-30_18h57.53.826,IAT,2023.2.3,59.91755343251639,2023-11-30 18h58.22.395676 +0530,
"Put your middle or index fingers on the E and I keys of your keyboard. Words representing the categories at the top will appear one-by-one in the middle of the screen. When the item belongs to a category on the left, press the E key; when the item belongs to a category on the right, press the I key. Items belong to only one category. If you make an error, an X will appear - fix the error by hitting the other key.

This is a timed sorting task. GO AS FAST AS YOU CAN while making as few mistakes as possible. Going too slow or making too many errors will result in an uninterpretable score. This task will take about 5 minutes to complete.

Press E or I to continue.",Disabled,Abled, , , ,2,text_trial_type_2,img_trial_type_2,0,0,0,0,4,1,9,1,16.521415800089017,,,,,,,,,,,,,,,,,,16.492737299995497,16.521415800089017,16.521415800089017,16.521415800089017,16.521415800089017,16.521415800089017,16.521415800089017,16.806659599998966,16.806659599998966,16.806659599998966,16.806659599998966,16.806659599998966,17.42495399992913,e,1,0.6036549999844283,None,None,0,,,,,,female,20,00007,2023-11-30_18h57.53.826,IAT,2023.2.3,59.91755343251639,2023-11-30 18h58.22.395676 +0530,
"Put your middle or index fingers on the E and I keys of your keyboard. Words representing the categories at the top will appear one-by-one in the middle of the screen. When the item belongs to a category on the left, press the E key; when the item belongs to a category on the right, press the I key. Items belong to only one category. If you make an error, an X will appear - fix the error by hitting the other key.

This is a timed sorting task. GO AS FAST AS YOU CAN while making as few mistakes as possible. Going too slow or making too many errors will result in an uninterpretable score. This task will take about 5 minutes to complete.

Press E or I to continue.",Disabled,Abled, , , ,1,text_trial_type_1,img_trial_type_1,0,0,0,0,5,0,10,0,17.45594309992157,,,,,,,,,,,,,,,,,,17.426341600017622,17.45594309992157,17.45594309992157,17.45594309992157,17.45594309992157,17.45594309992157,17.45594309992157,17.755858999909833,17.755858999909833,17.755858999909833,17.755858999909833,17.755858999909833,18.44560520001687,i,1,0.6798132001422346,None,None,0,,,,,,female,20,00007,2023-11-30_18h57.53.826,IAT,2023.2.3,59.91755343251639,2023-11-30 18h58.22.395676 +0530,
"Put your middle or index fingers on the E and I keys of your keyboard. Words representing the categories at the top will appear one-by-one in the middle of the screen. When the item belongs to a category on the left, press the E key; when the item belongs to a category on the right, press the I key. Items belong to only one category. If you make an error, an X will appear - fix the error by hitting the other key.

This is a timed sorting task. GO AS FAST AS YOU CAN while making as few mistakes as possible. Going too slow or making too many errors will result in an uninterpretable score. This task will take about 5 minutes to complete.

Press E or I to continue.",Disabled,Abled, , , ,2,text_trial_type_2,img_trial_type_2,0,0,0,0,5,1,11,1,18.47428909991868,,,,,,,,,,,,,,,,,,18.44690650003031,18.47428909991868,18.47428909991868,18.47428909991868,18.47428909991868,18.47428909991868,18.47428909991868,18.758617999963462,18.758617999963462,18.758617999963462,18.758617999963462,18.758617999963462,19.360821400070563,e,1,0.5703206998296082,None,None,0,,,,,,female,20,00007,2023-11-30_18h57.53.826,IAT,2023.2.3,59.91755343251639,2023-11-30 18h58.22.395676 +0530,
"Put your middle or index fingers on the E and I keys of your keyboard. Words representing the categories at the top will appear one-by-one in the middle of the screen. When the item belongs to a category on the left, press the E key; when the item belongs to a category on the right, press the I key. Items belong to only one category. If you make an error, an X will appear - fix the error by hitting the other key.

This is a timed sorting task. GO AS FAST AS YOU CAN while making as few mistakes as possible. Going too slow or making too many errors will result in an uninterpretable score. This task will take about 5 minutes to complete.

Press E or I to continue.",Disabled,Abled, , , ,1,text_trial_type_1,img_trial_type_1,0,0,0,0,6,0,12,0,19.391921400092542,,,,,,,,,,,,,,,,,,19.36216180003248,19.391921400092542,19.391921400092542,19.391921400092542,19.391921400092542,19.391921400092542,19.391921400092542,19.692504100035876,19.692504100035876,19.692504100035876,19.692504100035876,19.692504100035876,20.345228400081396,i,1,0.6197454999201,None,None,0,,,,,,female,20,00007,2023-11-30_18h57.53.826,IAT,2023.2.3,59.91755343251639,2023-11-30 18h58.22.395676 +0530,
"Put your middle or index fingers on the E and I keys of your keyboard. Words representing the categories at the top will appear one-by-one in the middle of the screen. When the item belongs to a category on the left, press the E key; when the item belongs to a category on the right, press the I key. Items belong to only one category. If you make an error, an X will appear - fix the error by hitting the other key.

This is a timed sorting task. GO AS FAST AS YOU CAN while making as few mistakes as possible. Going too slow or making too many errors will result in an uninterpretable score. This task will take about 5 minutes to complete.

Press E or I to continue.",Disabled,Abled, , , ,2,text_trial_type_2,img_trial_type_2,0,0,0,0,6,1,13,1,20.37545370007865,,,,,,,,,,,,,,,,,,20.346656400011852,20.37545370007865,20.37545370007865,20.37545370007865,20.37545370007865,20.37545370007865,20.37545370007865,20.676309100119397,20.676309100119397,20.676309100119397,20.676309100119397,20.676309100119397,21.6291012999136,e,1,0.922036400064826,None,None,0,,,,,,female,20,00007,2023-11-30_18h57.53.826,IAT,2023.2.3,59.91755343251639,2023-11-30 18h58.22.395676 +0530,
"Put your middle or index fingers on the E and I keys of your keyboard. Words representing the categories at the top will appear one-by-one in the middle of the screen. When the item belongs to a category on the left, press the E key; when the item belongs to a category on the right, press the I key. Items belong to only one category. If you make an error, an X will appear - fix the error by hitting the other key.

This is a timed sorting task. GO AS FAST AS YOU CAN while making as few mistakes as possible. Going too slow or making too many errors will result in an uninterpretable score. This task will take about 5 minutes to complete.

Press E or I to continue.",Disabled,Abled, , , ,2,text_trial_type_2,img_trial_type_2,0,0,0,0,7,0,14,1,21.66079939994961,,,,,,,,,,,,,,,,,,21.63041350012645,21.66079939994961,21.66079939994961,21.66079939994961,21.66079939994961,21.66079939994961,21.66079939994961,21.962006099987775,21.962006099987775,21.962006099987775,21.962006099987775,21.962006099987775,22.53029470006004,e,1,0.5501184000167996,None,None,0,,,,,,female,20,00007,2023-11-30_18h57.53.826,IAT,2023.2.3,59.91755343251639,2023-11-30 18h58.22.395676 +0530,
"Put your middle or index fingers on the E and I keys of your keyboard. Words representing the categories at the top will appear one-by-one in the middle of the screen. When the item belongs to a category on the left, press the E key; when the item belongs to a category on the right, press the I key. Items belong to only one category. If you make an error, an X will appear - fix the error by hitting the other key.

This is a timed sorting task. GO AS FAST AS YOU CAN while making as few mistakes as possible. Going too slow or making too many errors will result in an uninterpretable score. This task will take about 5 minutes to complete.

Press E or I to continue.",Disabled,Abled, , , ,1,text_trial_type_1,img_trial_type_1,0,0,0,0,7,1,15,0,22.560764600057155,,,,,,,,,,,,,,,,,,22.531591800041497,22.560764600057155,22.560764600057155,22.560764600057155,22.560764600057155,22.560764600057155,22.560764600057155,22.846401599934325,22.846401599934325,22.846401599934325,22.846401599934325,22.846401599934325,23.45026049995795,i,1,0.6002559999469668,None,None,0,,,,,,female,20,00007,2023-11-30_18h57.53.826,IAT,2023.2.3,59.91755343251639,2023-11-30 18h58.22.395676 +0530,
"Put your middle or index fingers on the E and I keys of your keyboard. Words representing the categories at the top will appear one-by-one in the middle of the screen. When the item belongs to a category on the left, press the E key; when the item belongs to a category on the right, press the I key. Items belong to only one category. If you make an error, an X will appear - fix the error by hitting the other key.

This is a timed sorting task. GO AS FAST AS YOU CAN while making as few mistakes as possible. Going too slow or making too many errors will result in an uninterpretable score. This task will take about 5 minutes to complete.

Press E or I to continue.",Disabled,Abled, , , ,1,text_trial_type_1,img_trial_type_1,0,0,0,0,8,0,16,0,23.47844390012324,,,,,,,,,,,,,,,,,,23.45154849998653,23.47844390012324,23.47844390012324,23.47844390012324,23.47844390012324,23.47844390012324,23.47844390012324,23.7644205999095,23.7644205999095,23.7644205999095,23.7644205999095,23.7644205999095,24.25091170007363,i,1,0.4767994999419898,None,None,0,,,,,,female,20,00007,2023-11-30_18h57.53.826,IAT,2023.2.3,59.91755343251639,2023-11-30 18h58.22.395676 +0530,
"Put your middle or index fingers on the E and I keys of your keyboard. Words representing the categories at the top will appear one-by-one in the middle of the screen. When the item belongs to a category on the left, press the E key; when the item belongs to a category on the right, press the I key. Items belong to only one category. If you make an error, an X will appear - fix the error by hitting the other key.

This is a timed sorting task. GO AS FAST AS YOU CAN while making as few mistakes as possible. Going too slow or making too many errors will result in an uninterpretable score. This task will take about 5 minutes to complete.

Press E or I to continue.",Disabled,Abled, , , ,2,text_trial_type_2,img_trial_type_2,0,0,0,0,8,1,17,1,24.281491399975494,,,,,,,,,,,,,,,,,,24.252552499994636,24.281491399975494,24.281491399975494,24.281491399975494,24.281491399975494,24.281491399975494,24.281491399975494,24.580541100120172,24.580541100120172,24.580541100120172,24.580541100120172,24.580541100120172,25.185364000033587,e,1,0.569783000042662,None,None,0,,,,,,female,20,00007,2023-11-30_18h57.53.826,IAT,2023.2.3,59.91755343251639,2023-11-30 18h58.22.395676 +0530,
"Put your middle or index fingers on the E and I keys of your keyboard. Words representing the categories at the top will appear one-by-one in the middle of the screen. When the item belongs to a category on the left, press the E key; when the item belongs to a category on the right, press the I key. Items belong to only one category. If you make an error, an X will appear - fix the error by hitting the other key.

This is a timed sorting task. GO AS FAST AS YOU CAN while making as few mistakes as possible. Going too slow or making too many errors will result in an uninterpretable score. This task will take about 5 minutes to complete.

Press E or I to continue.",Disabled,Abled, , , ,1,text_trial_type_1,img_trial_type_1,0,0,0,0,9,0,18,0,25.21520210010931,,,,,,,,,,,,,,,,,,25.186696900054812,25.21520210010931,25.21520210010931,25.21520210010931,25.21520210010931,25.21520210010931,25.21520210010931,25.500132099958137,25.500132099958137,25.500132099958137,25.500132099958137,25.500132099958137,26.117575800046325,i,1,0.5890637000557035,None,None,0,,,,,,female,20,00007,2023-11-30_18h57.53.826,IAT,2023.2.3,59.91755343251639,2023-11-30 18h58.22.395676 +0530,
"Put your middle or index fingers on the E and I keys of your keyboard. Words representing the categories at the top will appear one-by-one in the middle of the screen. When the item belongs to a category on the left, press the E key; when the item belongs to a category on the right, press the I key. Items belong to only one category. If you make an error, an X will appear - fix the error by hitting the other key.

This is a timed sorting task. GO AS FAST AS YOU CAN while making as few mistakes as possible. Going too slow or making too many errors will result in an uninterpretable score. This task will take about 5 minutes to complete.

Press E or I to continue.",Disabled,Abled, , , ,1,text_trial_type_1,img_trial_type_1,0,0,0,0,9,1,19,0,26.14975060010329,,,,,,,,,,,,,,,,,,26.118976700119674,26.14975060010329,26.14975060010329,26.14975060010329,26.14975060010329,26.14975060010329,26.14975060010329,26.433711499907076,26.433711499907076,26.433711499907076,26.433711499907076,26.433711499907076,26.91947100008838,i,1,0.46075290022417903,None,None,0,,,,,,female,20,00007,2023-11-30_18h57.53.826,IAT,2023.2.3,59.91755343251639,2023-11-30 18h58.22.395676 +0530,
"See above, the categories have changed. The items for sorting have changed as well. The rules, however, are the same.

When the item belongs to a category on the left, press the E key; when the item belongs to a category on the right, press the I key. Items belong to only one category. An X appears after an error - fix the error by hitting the other key. GO AS FAST AS YOU CAN.

Press E or I to continue.", , ,Negative,Positive, ,4,text_trial_type_4,img_trial_type_4,0,1,1,1,0,0,0,1,30.27144469995983,,,,,,,,26.92073790007271,27.70070970011875,27.70070970011875,27.70070970011875,27.70070970011875,27.70070970011875,27.70070970011875,27.70070970011875,29.670444200048223,30.18911990011111,30.212992599932477,30.27144469995983,30.27144469995983,30.27144469995983,30.27144469995983,30.27144469995983,30.27144469995983,30.521393300034106,30.521393300034106,30.521393300034106,30.521393300034106,30.521393300034106,31.27446709992364,e,1,0.7210445001255721,None,None,0,,,,,,female,20,00007,2023-11-30_18h57.53.826,IAT,2023.2.3,59.91755343251639,2023-11-30 18h58.22.395676 +0530,
"See above, the categories have changed. The items for sorting have changed as well. The rules, however, are the same.

When the item belongs to a category on the left, press the E key; when the item belongs to a category on the right, press the I key. Items belong to only one category. An X appears after an error - fix the error by hitting the other key. GO AS FAST AS YOU CAN.

Press E or I to continue.", , ,Negative,Positive, ,4,text_trial_type_4,img_trial_type_4,0,1,1,1,0,1,1,1,31.32133619999513,,,,,,,,,,,,,,,,,,31.276193599915132,31.32133619999513,31.32133619999513,31.32133619999513,31.32133619999513,31.32133619999513,31.32133619999513,31.604833000106737,31.604833000106737,31.604833000106737,31.604833000106737,31.604833000106737,32.0588376999367,e,1,0.45133810001425445,None,None,0,,,,,,female,20,00007,2023-11-30_18h57.53.826,IAT,2023.2.3,59.91755343251639,2023-11-30 18h58.22.395676 +0530,
"See above, the categories have changed. The items for sorting have changed as well. The rules, however, are the same.

When the item belongs to a category on the left, press the E key; when the item belongs to a category on the right, press the I key. Items belong to only one category. An X appears after an error - fix the error by hitting the other key. GO AS FAST AS YOU CAN.

Press E or I to continue.", , ,Negative,Positive, ,4,text_trial_type_4,img_trial_type_4,0,1,1,1,1,0,2,1,32.10564920003526,,,,,,,,,,,,,,,,,,32.06016770005226,32.10564920003526,32.10564920003526,32.10564920003526,32.10564920003526,32.10564920003526,32.10564920003526,32.39067790005356,32.39067790005356,32.39067790005356,32.39067790005356,32.39067790005356,32.8916559999343,e,1,0.478783099912107,None,None,0,,,,,,female,20,00007,2023-11-30_18h57.53.826,IAT,2023.2.3,59.91755343251639,2023-11-30 18h58.22.395676 +0530,
"See above, the categories have changed. The items for sorting have changed as well. The rules, however, are the same.

When the item belongs to a category on the left, press the E key; when the item belongs to a category on the right, press the I key. Items belong to only one category. An X appears after an error - fix the error by hitting the other key. GO AS FAST AS YOU CAN.

Press E or I to continue.", , ,Negative,Positive, ,4,text_trial_type_4,img_trial_type_4,0,1,1,1,1,1,3,1,32.94077520002611,,,,,,,,,,,,,,,,,,32.892928699962795,32.94077520002611,32.94077520002611,32.94077520002611,32.94077520002611,32.94077520002611,32.94077520002611,33.20780520001426,33.20780520001426,33.20780520001426,33.20780520001426,33.20780520001426,33.62752919993363,e,1,0.3948470999021083,None,None,0,,,,,,female,20,00007,2023-11-30_18h57.53.826,IAT,2023.2.3,59.91755343251639,2023-11-30 18h58.22.395676 +0530,
"See above, the categories have changed. The items for sorting have changed as well. The rules, however, are the same.

When the item belongs to a category on the left, press the E key; when the item belongs to a category on the right, press the I key. Items belong to only one category. An X appears after an error - fix the error by hitting the other key. GO AS FAST AS YOU CAN.

Press E or I to continue.", , ,Negative,Positive, ,3,text_trial_type_3,img_trial_type_3,0,1,1,1,2,0,4,0,33.68986829998903,,,,,,,,,,,,,,,,,,33.628908100072294,33.68986829998903,33.68986829998903,33.68986829998903,33.68986829998903,33.68986829998903,33.68986829998903,33.95878460002132,33.95878460002132,33.95878460002132,33.95878460002132,33.95878460002132,34.444534100126475,i,1,0.45227290014736354,None,None,0,,,,,,female,20,00007,2023-11-30_18h57.53.826,IAT,2023.2.3,59.91755343251639,2023-11-30 18h58.22.395676 +0530,
"See above, the categories have changed. The items for sorting have changed as well. The rules, however, are the same.

When the item belongs to a category on the left, press the E key; when the item belongs to a category on the right, press the I key. Items belong to only one category. An X appears after an error - fix the error by hitting the other key. GO AS FAST AS YOU CAN.

Press E or I to continue.", , ,Negative,Positive, ,3,text_trial_type_3,img_trial_type_3,0,1,1,1,2,1,5,0,34.49129940010607,,,,,,,,,,,,,,,,,,34.44591249991208,34.49129940010607,34.49129940010607,34.49129940010607,34.49129940010607,34.49129940010607,34.49129940010607,34.77606440009549,34.77606440009549,34.77606440009549,34.77606440009549,34.77606440009549,35.27925970009528,i,1,0.5000052000395954,None,None,0,,,,,,female,20,00007,2023-11-30_18h57.53.826,IAT,2023.2.3,59.91755343251639,2023-11-30 18h58.22.395676 +0530,
"See above, the categories have changed. The items for sorting have changed as well. The rules, however, are the same.

When the item belongs to a category on the left, press the E key; when the item belongs to a category on the right, press the I key. Items belong to only one category. An X appears after an error - fix the error by hitting the other key. GO AS FAST AS YOU CAN.

Press E or I to continue.", , ,Negative,Positive, ,3,text_trial_type_3,img_trial_type_3,0,1,1,1,3,0,6,0,35.32544429996051,,,,,,,,,,,,,,,,,,35.280582499923185,35.32544429996051,35.32544429996051,35.32544429996051,35.32544429996051,35.32544429996051,35.32544429996051,35.611037200083956,35.611037200083956,35.611037200083956,35.611037200083956,35.611037200083956,36.14675860013813,i,1,0.5035814000293612,None,None,0,,,,,,female,20,00007,2023-11-30_18h57.53.826,IAT,2023.2.3,59.91755343251639,2023-11-30 18h58.22.395676 +0530,
"See above, the categories have changed. The items for sorting have changed as well. The rules, however, are the same.

When the item belongs to a category on the left, press the E key; when the item belongs to a category on the right, press the I key. Items belong to only one category. An X appears after an error - fix the error by hitting the other key. GO AS FAST AS YOU CAN.

Press E or I to continue.", , ,Negative,Positive, ,3,text_trial_type_3,img_trial_type_3,0,1,1,1,3,1,7,0,36.19434650009498,,,,,,,,,,,,,,,,,,36.148040200117975,36.19434650009498,36.19434650009498,36.19434650009498,36.19434650009498,36.19434650009498,36.19434650009498,36.462018500082195,36.462018500082195,36.462018500082195,36.462018500082195,36.462018500082195,36.93012130004354,i,1,0.4458951000124216,None,None,0,,,,,,female,20,00007,2023-11-30_18h57.53.826,IAT,2023.2.3,59.91755343251639,2023-11-30 18h58.22.395676 +0530,
"See above, the categories have changed. The items for sorting have changed as well. The rules, however, are the same.

When the item belongs to a category on the left, press the E key; when the item belongs to a category on the right, press the I key. Items belong to only one category. An X appears after an error - fix the error by hitting the other key. GO AS FAST AS YOU CAN.

Press E or I to continue.", , ,Negative,Positive, ,4,text_trial_type_4,img_trial_type_4,0,1,1,1,4,0,8,1,36.97788599994965,,,,,,,,,,,,,,,,,,36.93140850006603,36.97788599994965,36.97788599994965,36.97788599994965,36.97788599994965,36.97788599994965,36.97788599994965,37.26256770011969,37.26256770011969,37.26256770011969,37.26256770011969,37.26256770011969,37.91578070004471,e,1,0.635350099997595,None,None,0,,,,,,female,20,00007,2023-11-30_18h57.53.826,IAT,2023.2.3,59.91755343251639,2023-11-30 18h58.22.395676 +0530,
"See above, the categories have changed. The items for sorting have changed as well. The rules, however, are the same.

When the item belongs to a category on the left, press the E key; when the item belongs to a category on the right, press the I key. Items belong to only one category. An X appears after an error - fix the error by hitting the other key. GO AS FAST AS YOU CAN.

Press E or I to continue.", , ,Negative,Positive, ,3,text_trial_type_3,img_trial_type_3,0,1,1,1,4,1,9,0,37.977980700088665,,,,,,,,,,,,,,,,,,37.91706610005349,37.977980700088665,37.977980700088665,37.977980700088665,37.977980700088665,37.977980700088665,37.977980700088665,38.246384399943054,38.246384399943054,38.246384399943054,38.246384399943054,38.246384399943054,39.04922170005739,i,1,0.7964939000084996,None,None,0,,,,,,female,20,00007,2023-11-30_18h57.53.826,IAT,2023.2.3,59.91755343251639,2023-11-30 18h58.22.395676 +0530,
"See above, the categories have changed. The items for sorting have changed as well. The rules, however, are the same.

When the item belongs to a category on the left, press the E key; when the item belongs to a category on the right, press the I key. Items belong to only one category. An X appears after an error - fix the error by hitting the other key. GO AS FAST AS YOU CAN.

Press E or I to continue.", , ,Negative,Positive, ,3,text_trial_type_3,img_trial_type_3,0,1,1,1,5,0,10,0,39.096537800040096,,,,,,,,,,,,,,,,,,39.05050430004485,39.096537800040096,39.096537800040096,39.096537800040096,39.096537800040096,39.096537800040096,39.096537800040096,39.365168899996206,39.365168899996206,39.365168899996206,39.365168899996206,39.365168899996206,39.849988400004804,i,1,0.466493499930948,None,None,0,,,,,,female,20,00007,2023-11-30_18h57.53.826,IAT,2023.2.3,59.91755343251639,2023-11-30 18h58.22.395676 +0530,
"See above, the categories have changed. The items for sorting have changed as well. The rules, however, are the same.

When the item belongs to a category on the left, press the E key; when the item belongs to a category on the right, press the I key. Items belong to only one category. An X appears after an error - fix the error by hitting the other key. GO AS FAST AS YOU CAN.

Press E or I to continue.", , ,Negative,Positive, ,4,text_trial_type_4,img_trial_type_4,0,1,1,1,5,1,11,1,39.89831249997951,,,,,,,,,,,,,,,,,,39.85177649999969,39.89831249997951,39.89831249997951,39.89831249997951,39.89831249997951,39.89831249997951,39.89831249997951,40.18194429995492,40.18194429995492,40.18194429995492,40.18194429995492,40.18194429995492,40.68539800005965,e,1,0.49800739996135235,None,None,0,,,,,,female,20,00007,2023-11-30_18h57.53.826,IAT,2023.2.3,59.91755343251639,2023-11-30 18h58.22.395676 +0530,
"See above, the categories have changed. The items for sorting have changed as well. The rules, however, are the same.

When the item belongs to a category on the left, press the E key; when the item belongs to a category on the right, press the I key. Items belong to only one category. An X appears after an error - fix the error by hitting the other key. GO AS FAST AS YOU CAN.

Press E or I to continue.", , ,Negative,Positive, ,3,text_trial_type_3,img_trial_type_3,0,1,1,1,6,0,12,0,40.731819299981,,,,,,,,,,,,,,,,,,40.6866888999939,40.731819299981,40.731819299981,40.731819299981,40.731819299981,40.731819299981,40.731819299981,41.0002361999359,41.0002361999359,41.0002361999359,41.0002361999359,41.0002361999359,41.78513789991848,i,1,0.7704001998063177,None,None,0,,,,,,female,20,00007,2023-11-30_18h57.53.826,IAT,2023.2.3,59.91755343251639,2023-11-30 18h58.22.395676 +0530,
"See above, the categories have changed. The items for sorting have changed as well. The rules, however, are the same.

When the item belongs to a category on the left, press the E key; when the item belongs to a category on the right, press the I key. Items belong to only one category. An X appears after an error - fix the error by hitting the other key. GO AS FAST AS YOU CAN.

Press E or I to continue.", , ,Negative,Positive, ,3,text_trial_type_3,img_trial_type_3,0,1,1,1,6,1,13,0,41.832972900010645,,,,,,,,,,,,,,,,,,41.786469700047746,41.832972900010645,41.832972900010645,41.832972900010645,41.832972900010645,41.832972900010645,41.832972900010645,42.11746950005181,42.11746950005181,42.11746950005181,42.11746950005181,42.11746950005181,42.83706249995157,i,1,0.7083469999488443,None,None,0,,,,,,female,20,00007,2023-11-30_18h57.53.826,IAT,2023.2.3,59.91755343251639,2023-11-30 18h58.22.395676 +0530,
"See above, the categories have changed. The items for sorting have changed as well. The rules, however, are the same.

When the item belongs to a category on the left, press the E key; when the item belongs to a category on the right, press the I key. Items belong to only one category. An X appears after an error - fix the error by hitting the other key. GO AS FAST AS YOU CAN.

Press E or I to continue.", , ,Negative,Positive, ,4,text_trial_type_4,img_trial_type_4,0,1,1,1,7,0,14,1,42.88378140004352,,,,,,,,,,,,,,,,,,42.83843640005216,42.88378140004352,42.88378140004352,42.88378140004352,42.88378140004352,42.88378140004352,42.88378140004352,43.16952649992891,43.16952649992891,43.16952649992891,43.16952649992891,43.16952649992891,44.005336800124496,e,1,0.8019463999662548,None,i,1,0.46817729994654655,None,,,,female,20,00007,2023-11-30_18h57.53.826,IAT,2023.2.3,59.91755343251639,2023-11-30 18h58.22.395676 +0530,
"See above, the categories have changed. The items for sorting have changed as well. The rules, however, are the same.

When the item belongs to a category on the left, press the E key; when the item belongs to a category on the right, press the I key. Items belong to only one category. An X appears after an error - fix the error by hitting the other key. GO AS FAST AS YOU CAN.

Press E or I to continue.", , ,Negative,Positive, ,3,text_trial_type_3,img_trial_type_3,0,1,1,1,7,1,15,0,44.05142579996027,,,,,,,,,,,,,,,,,,44.00705000013113,44.05142579996027,44.05142579996027,44.05142579996027,44.05142579996027,44.05142579996027,44.05142579996027,44.33582859998569,44.33582859998569,44.33582859998569,44.33582859998569,44.33582859998569,44.97333510010503,i,1,0.6298353001475334,None,None,0,,,,,,female,20,00007,2023-11-30_18h57.53.826,IAT,2023.2.3,59.91755343251639,2023-11-30 18h58.22.395676 +0530,
"See above, the categories have changed. The items for sorting have changed as well. The rules, however, are the same.

When the item belongs to a category on the left, press the E key; when the item belongs to a category on the right, press the I key. Items belong to only one category. An X appears after an error - fix the error by hitting the other key. GO AS FAST AS YOU CAN.

Press E or I to continue.", , ,Negative,Positive, ,4,text_trial_type_4,img_trial_type_4,0,1,1,1,8,0,16,1,45.019830000121146,,,,,,,,,,,,,,,,,,44.9746195001062,45.019830000121146,45.019830000121146,45.019830000121146,45.019830000121146,45.019830000121146,45.019830000121146,45.30416529998183,45.30416529998183,45.30416529998183,45.30416529998183,45.30416529998183,45.97450969996862,e,1,0.665798099944368,None,None,0,,,,,,female,20,00007,2023-11-30_18h57.53.826,IAT,2023.2.3,59.91755343251639,2023-11-30 18h58.22.395676 +0530,
"See above, the categories have changed. The items for sorting have changed as well. The rules, however, are the same.

When the item belongs to a category on the left, press the E key; when the item belongs to a category on the right, press the I key. Items belong to only one category. An X appears after an error - fix the error by hitting the other key. GO AS FAST AS YOU CAN.

Press E or I to continue.", , ,Negative,Positive, ,4,text_trial_type_4,img_trial_type_4,0,1,1,1,8,1,17,1,46.021269500022754,,,,,,,,,,,,,,,,,,45.97585400007665,46.021269500022754,46.021269500022754,46.021269500022754,46.021269500022754,46.021269500022754,46.021269500022754,46.30534110008739,46.30534110008739,46.30534110008739,46.30534110008739,46.30534110008739,46.82414959999733,e,1,0.4882565001025796,None,None,0,,,,,,female,20,00007,2023-11-30_18h57.53.826,IAT,2023.2.3,59.91755343251639,2023-11-30 18h58.22.395676 +0530,
"See above, the categories have changed. The items for sorting have changed as well. The rules, however, are the same.

When the item belongs to a category on the left, press the E key; when the item belongs to a category on the right, press the I key. Items belong to only one category. An X appears after an error - fix the error by hitting the other key. GO AS FAST AS YOU CAN.

Press E or I to continue.", , ,Negative,Positive, ,3,text_trial_type_3,img_trial_type_3,0,1,1,1,9,0,18,0,46.870780900120735,,,,,,,,,,,,,,,,,,46.82570019993,46.870780900120735,46.870780900120735,46.870780900120735,46.870780900120735,46.870780900120735,46.870780900120735,47.156730599934235,47.156730599934235,47.156730599934235,47.156730599934235,47.156730599934235,47.77634650003165,i,1,0.5857703001238406,None,None,0,,,,,,female,20,00007,2023-11-30_18h57.53.826,IAT,2023.2.3,59.91755343251639,2023-11-30 18h58.22.395676 +0530,
"See above, the categories have changed. The items for sorting have changed as well. The rules, however, are the same.

When the item belongs to a category on the left, press the E key; when the item belongs to a category on the right, press the I key. Items belong to only one category. An X appears after an error - fix the error by hitting the other key. GO AS FAST AS YOU CAN.

Press E or I to continue.", , ,Negative,Positive, ,4,text_trial_type_4,img_trial_type_4,0,1,1,1,9,1,19,1,47.84012149996124,,,,,,,,,,,,,,,,,,47.77777100005187,47.84012149996124,47.84012149996124,47.84012149996124,47.84012149996124,47.84012149996124,47.84012149996124,48.09113429998979,48.09113429998979,48.09113429998979,48.09113429998979,48.09113429998979,48.80957140005194,e,1,0.6957026000600308,None,None,0,,,,,,female,20,00007,2023-11-30_18h57.53.826,IAT,2023.2.3,59.91755343251639,2023-11-30 18h58.22.395676 +0530,
"See above, the four categories you saw separately now appear together. Remember, each item belongs to only one group.

The green and white labels and items may help to identify the appropriate category. Use the E and I keys to categorize items into four groups left and right, and correct errors by hitting the other key.

Press E or I to continue.",Disabled,Abled,Negative,Positive,or,3,text_trial_type_3,img_trial_type_3,0,2,2,2,0,0,0,2,53.64611370000057,,,,,,,,48.81086089997552,49.5907568000257,49.5907568000257,49.5907568000257,49.5907568000257,49.5907568000257,49.5907568000257,49.5907568000257,51.560783599969,53.5644733000081,53.58741750009358,53.64611370000057,53.64611370000057,53.64611370000057,53.64611370000057,53.64611370000057,53.64611370000057,53.896848200121894,53.896848200121894,53.896848200121894,53.896848200121894,53.896848200121894,54.565377100137994,i,1,0.641463200096041,None,None,0,,,,,,female,20,00007,2023-11-30_18h57.53.826,IAT,2023.2.3,59.91755343251639,2023-11-30 18h58.22.395676 +0530,
"See above, the four categories you saw separately now appear together. Remember, each item belongs to only one group.

The green and white labels and items may help to identify the appropriate category. Use the E and I keys to categorize items into four groups left and right, and correct errors by hitting the other key.

Press E or I to continue.",Disabled,Abled,Negative,Positive,or,4,text_trial_type_4,img_trial_type_4,0,2,2,2,0,1,1,3,54.61420860001817,,,,,,,,,,,,,,,,,,54.56695550004952,54.61420860001817,54.61420860001817,54.61420860001817,54.61420860001817,54.61420860001817,54.61420860001817,54.89776449999772,54.89776449999772,54.89776449999772,54.89776449999772,54.89776449999772,55.56759919994511,e,1,0.666294900001958,None,None,0,,,,,,female,20,00007,2023-11-30_18h57.53.826,IAT,2023.2.3,59.91755343251639,2023-11-30 18h58.22.395676 +0530,
"See above, the four categories you saw separately now appear together. Remember, each item belongs to only one group.

The green and white labels and items may help to identify the appropriate category. Use the E and I keys to categorize items into four groups left and right, and correct errors by hitting the other key.

Press E or I to continue.",Disabled,Abled,Negative,Positive,or,3,text_trial_type_3,img_trial_type_3,0,2,2,2,0,2,2,2,55.63245199993253,,,,,,,,,,,,,,,,,,55.568792399950325,55.63245199993253,55.63245199993253,55.63245199993253,55.63245199993253,55.63245199993253,55.63245199993253,55.89854190009646,55.89854190009646,55.89854190009646,55.89854190009646,55.89854190009646,56.485416900133714,i,1,0.5844925998244435,None,None,0,,,,,,female,20,00007,2023-11-30_18h57.53.826,IAT,2023.2.3,59.91755343251639,2023-11-30 18h58.22.395676 +0530,
"See above, the four categories you saw separately now appear together. Remember, each item belongs to only one group.

The green and white labels and items may help to identify the appropriate category. Use the E and I keys to categorize items into four groups left and right, and correct errors by hitting the other key.

Press E or I to continue.",Disabled,Abled,Negative,Positive,or,4,text_trial_type_4,img_trial_type_4,0,2,2,2,0,3,3,3,56.532879299949855,,,,,,,,,,,,,,,,,,56.486604399979115,56.532879299949855,56.532879299949855,56.532879299949855,56.532879299949855,56.532879299949855,56.532879299949855,56.816315999953076,56.816315999953076,56.816315999953076,56.816315999953076,56.816315999953076,57.485735800117254,e,1,0.6562816998921335,None,None,0,,,,,,female,20,00007,2023-11-30_18h57.53.826,IAT,2023.2.3,59.91755343251639,2023-11-30 18h58.22.395676 +0530,
"See above, the four categories you saw separately now appear together. Remember, each item belongs to only one group.

The green and white labels and items may help to identify the appropriate category. Use the E and I keys to categorize items into four groups left and right, and correct errors by hitting the other key.

Press E or I to continue.",Disabled,Abled,Negative,Positive,or,3,text_trial_type_3,img_trial_type_3,0,2,2,2,1,0,4,2,57.53261559992097,,,,,,,,,,,,,,,,,,57.48689249996096,57.53261559992097,57.53261559992097,57.53261559992097,57.53261559992097,57.53261559992097,57.53261559992097,57.81820009998046,57.81820009998046,57.81820009998046,57.81820009998046,57.81820009998046,58.70416680001654,i,1,0.8748941998928785,None,None,0,,,,,,female,20,00007,2023-11-30_18h57.53.826,IAT,2023.2.3,59.91755343251639,2023-11-30 18h58.22.395676 +0530,
"See above, the four categories you saw separately now appear together. Remember, each item belongs to only one group.

The green and white labels and items may help to identify the appropriate category. Use the E and I keys to categorize items into four groups left and right, and correct errors by hitting the other key.

Press E or I to continue.",Disabled,Abled,Negative,Positive,or,1,text_trial_type_1,img_trial_type_1,0,2,2,2,1,1,5,0,58.75177380000241,,,,,,,,,,,,,,,,,,58.70532279997133,58.75177380000241,58.75177380000241,58.75177380000241,58.75177380000241,58.75177380000241,58.75177380000241,59.03577410010621,59.03577410010621,59.03577410010621,59.03577410010621,59.03577410010621,60.40651859994978,i,1,1.348912199959159,None,None,0,,,,,,female,20,00007,2023-11-30_18h57.53.826,IAT,2023.2.3,59.91755343251639,2023-11-30 18h58.22.395676 +0530,
"See above, the four categories you saw separately now appear together. Remember, each item belongs to only one group.

The green and white labels and items may help to identify the appropriate category. Use the E and I keys to categorize items into four groups left and right, and correct errors by hitting the other key.

Press E or I to continue.",Disabled,Abled,Negative,Positive,or,2,text_trial_type_2,img_trial_type_2,0,2,2,2,1,2,6,1,60.43773470004089,,,,,,,,,,,,,,,,,,60.40776410000399,60.43773470004089,60.43773470004089,60.43773470004089,60.43773470004089,60.43773470004089,60.43773470004089,60.72121839993633,60.72121839993633,60.72121839993633,60.72121839993633,60.72121839993633,61.29005039995536,e,1,0.5480570001527667,None,None,0,,,,,,female,20,00007,2023-11-30_18h57.53.826,IAT,2023.2.3,59.91755343251639,2023-11-30 18h58.22.395676 +0530,
"See above, the four categories you saw separately now appear together. Remember, each item belongs to only one group.

The green and white labels and items may help to identify the appropriate category. Use the E and I keys to categorize items into four groups left and right, and correct errors by hitting the other key.

Press E or I to continue.",Disabled,Abled,Negative,Positive,or,2,text_trial_type_2,img_trial_type_2,0,2,2,2,1,3,7,1,61.32141029997729,,,,,,,,,,,,,,,,,,61.29129799990915,61.32141029997729,61.32141029997729,61.32141029997729,61.32141029997729,61.32141029997729,61.32141029997729,61.60585270007141,61.60585270007141,61.60585270007141,61.60585270007141,61.60585270007141,62.075216999975964,e,1,0.46336719999089837,None,None,0,,,,,,female,20,00007,2023-11-30_18h57.53.826,IAT,2023.2.3,59.91755343251639,2023-11-30 18h58.22.395676 +0530,
"See above, the four categories you saw separately now appear together. Remember, each item belongs to only one group.

The green and white labels and items may help to identify the appropriate category. Use the E and I keys to categorize items into four groups left and right, and correct errors by hitting the other key.

Press E or I to continue.",Disabled,Abled,Negative,Positive,or,2,text_trial_type_2,img_trial_type_2,0,2,2,2,2,0,8,1,62.105027300072834,,,,,,,,,,,,,,,,,,62.0764248999767,62.105027300072834,62.105027300072834,62.105027300072834,62.105027300072834,62.105027300072834,62.105027300072834,62.39001570013352,62.39001570013352,62.39001570013352,62.39001570013352,62.39001570013352,62.942260399926454,e,1,0.5469268001616001,None,None,0,,,,,,female,20,00007,2023-11-30_18h57.53.826,IAT,2023.2.3,59.91755343251639,2023-11-30 18h58.22.395676 +0530,
"See above, the four categories you saw separately now appear together. Remember, each item belongs to only one group.

The green and white labels and items may help to identify the appropriate category. Use the E and I keys to categorize items into four groups left and right, and correct errors by hitting the other key.

Press E or I to continue.",Disabled,Abled,Negative,Positive,or,1,text_trial_type_1,img_trial_type_1,0,2,2,2,2,1,9,0,62.973360599949956,,,,,,,,,,,,,,,,,,62.94341320008971,62.973360599949956,62.973360599949956,62.973360599949956,62.973360599949956,62.973360599949956,62.973360599949956,63.25688709993847,63.25688709993847,63.25688709993847,63.25688709993847,63.25688709993847,63.925216499948874,i,1,0.6399175999686122,None,None,0,,,,,,female,20,00007,2023-11-30_18h57.53.826,IAT,2023.2.3,59.91755343251639,2023-11-30 18h58.22.395676 +0530,
"See above, the four categories you saw separately now appear together. Remember, each item belongs to only one group.

The green and white labels and items may help to identify the appropriate category. Use the E and I keys to categorize items into four groups left and right, and correct errors by hitting the other key.

Press E or I to continue.",Disabled,Abled,Negative,Positive,or,2,text_trial_type_2,img_trial_type_2,0,2,2,2,2,2,10,1,63.95737909991294,,,,,,,,,,,,,,,,,,63.926390199922025,63.95737909991294,63.95737909991294,63.95737909991294,63.95737909991294,63.95737909991294,63.95737909991294,64.24176910007372,64.24176910007372,64.24176910007372,64.24176910007372,64.24176910007372,65.14487519999966,e,1,0.8711155999917537,None,i,1,0.5586463001091033,None,,,,female,20,00007,2023-11-30_18h57.53.826,IAT,2023.2.3,59.91755343251639,2023-11-30 18h58.22.395676 +0530,
"See above, the four categories you saw separately now appear together. Remember, each item belongs to only one group.

The green and white labels and items may help to identify the appropriate category. Use the E and I keys to categorize items into four groups left and right, and correct errors by hitting the other key.

Press E or I to continue.",Disabled,Abled,Negative,Positive,or,1,text_trial_type_1,img_trial_type_1,0,2,2,2,2,3,11,0,65.17560339998454,,,,,,,,,,,,,,,,,,65.14643940003589,65.17560339998454,65.17560339998454,65.17560339998454,65.17560339998454,65.17560339998454,65.17560339998454,65.45970760006458,65.45970760006458,65.45970760006458,65.45970760006458,65.45970760006458,66.12904469994828,i,1,0.657709299819544,None,None,0,,,,,,female,20,00007,2023-11-30_18h57.53.826,IAT,2023.2.3,59.91755343251639,2023-11-30 18h58.22.395676 +0530,
"See above, the four categories you saw separately now appear together. Remember, each item belongs to only one group.

The green and white labels and items may help to identify the appropriate category. Use the E and I keys to categorize items into four groups left and right, and correct errors by hitting the other key.

Press E or I to continue.",Disabled,Abled,Negative,Positive,or,4,text_trial_type_4,img_trial_type_4,0,2,2,2,3,0,12,3,66.1768604000099,,,,,,,,,,,,,,,,,,66.13022210006602,66.1768604000099,66.1768604000099,66.1768604000099,66.1768604000099,66.1768604000099,66.1768604000099,66.4612859999761,66.4612859999761,66.4612859999761,66.4612859999761,66.4612859999761,67.51358189992607,e,1,1.021384800085798,None,None,0,,,,,,female,20,00007,2023-11-30_18h57.53.826,IAT,2023.2.3,59.91755343251639,2023-11-30 18h58.22.395676 +0530,
"See above, the four categories you saw separately now appear together. Remember, each item belongs to only one group.

The green and white labels and items may help to identify the appropriate category. Use the E and I keys to categorize items into four groups left and right, and correct errors by hitting the other key.

Press E or I to continue.",Disabled,Abled,Negative,Positive,or,4,text_trial_type_4,img_trial_type_4,0,2,2,2,3,1,13,3,67.56205900013447,,,,,,,,,,,,,,,,,,67.51473350008018,67.56205900013447,67.56205900013447,67.56205900013447,67.56205900013447,67.56205900013447,67.56205900013447,67.82978649996221,67.82978649996221,67.82978649996221,67.82978649996221,67.82978649996221,68.38142649992369,e,1,0.5214770999737084,None,None,0,,,,,,female,20,00007,2023-11-30_18h57.53.826,IAT,2023.2.3,59.91755343251639,2023-11-30 18h58.22.395676 +0530,
"See above, the four categories you saw separately now appear together. Remember, each item belongs to only one group.

The green and white labels and items may help to identify the appropriate category. Use the E and I keys to categorize items into four groups left and right, and correct errors by hitting the other key.

Press E or I to continue.",Disabled,Abled,Negative,Positive,or,3,text_trial_type_3,img_trial_type_3,0,2,2,2,3,2,14,2,68.42841499997303,,,,,,,,,,,,,,,,,,68.38268369995058,68.42841499997303,68.42841499997303,68.42841499997303,68.42841499997303,68.42841499997303,68.42841499997303,68.7132930001244,68.7132930001244,68.7132930001244,68.7132930001244,68.7132930001244,69.3669443000108,i,1,0.6479461998678744,None,None,0,,,,,,female,20,00007,2023-11-30_18h57.53.826,IAT,2023.2.3,59.91755343251639,2023-11-30 18h58.22.395676 +0530,
"See above, the four categories you saw separately now appear together. Remember, each item belongs to only one group.

The green and white labels and items may help to identify the appropriate category. Use the E and I keys to categorize items into four groups left and right, and correct errors by hitting the other key.

Press E or I to continue.",Disabled,Abled,Negative,Positive,or,1,text_trial_type_1,img_trial_type_1,0,2,2,2,3,3,15,0,69.39973890013061,,,,,,,,,,,,,,,,,,69.36811099993065,69.39973890013061,69.39973890013061,69.39973890013061,69.39973890013061,69.39973890013061,69.39973890013061,69.69686129991896,69.69686129991896,69.69686129991896,69.69686129991896,69.69686129991896,70.33314130012877,i,1,0.6290894998237491,None,None,0,,,,,,female,20,00007,2023-11-30_18h57.53.826,IAT,2023.2.3,59.91755343251639,2023-11-30 18h58.22.395676 +0530,
"See above, the four categories you saw separately now appear together. Remember, each item belongs to only one group.

The green and white labels and items may help to identify the appropriate category. Use the E and I keys to categorize items into four groups left and right, and correct errors by hitting the other key.

Press E or I to continue.",Disabled,Abled,Negative,Positive,or,1,text_trial_type_1,img_trial_type_1,0,2,2,2,4,0,16,0,70.36446540011093,,,,,,,,,,,,,,,,,,70.33418010012247,70.36446540011093,70.36446540011093,70.36446540011093,70.36446540011093,70.36446540011093,70.36446540011093,70.64864080003463,70.64864080003463,70.64864080003463,70.64864080003463,70.64864080003463,71.11702729994431,i,1,0.4625529998447746,None,None,0,,,,,,female,20,00007,2023-11-30_18h57.53.826,IAT,2023.2.3,59.91755343251639,2023-11-30 18h58.22.395676 +0530,
"See above, the four categories you saw separately now appear together. Remember, each item belongs to only one group.

The green and white labels and items may help to identify the appropriate category. Use the E and I keys to categorize items into four groups left and right, and correct errors by hitting the other key.

Press E or I to continue.",Disabled,Abled,Negative,Positive,or,2,text_trial_type_2,img_trial_type_2,0,2,2,2,4,1,17,1,71.14890299993567,,,,,,,,,,,,,,,,,,71.11819509998895,71.14890299993567,71.14890299993567,71.14890299993567,71.14890299993567,71.14890299993567,71.14890299993567,71.43338309996761,71.43338309996761,71.43338309996761,71.43338309996761,71.43338309996761,72.01835129992105,e,1,0.5498363999649882,None,None,0,,,,,,female,20,00007,2023-11-30_18h57.53.826,IAT,2023.2.3,59.91755343251639,2023-11-30 18h58.22.395676 +0530,
"See above, the four categories you saw separately now appear together. Remember, each item belongs to only one group.

The green and white labels and items may help to identify the appropriate category. Use the E and I keys to categorize items into four groups left and right, and correct errors by hitting the other key.

Press E or I to continue.",Disabled,Abled,Negative,Positive,or,3,text_trial_type_3,img_trial_type_3,0,2,2,2,4,2,18,2,72.06712629995309,,,,,,,,,,,,,,,,,,72.01950070005842,72.06712629995309,72.06712629995309,72.06712629995309,72.06712629995309,72.06712629995309,72.06712629995309,72.3513623001054,72.3513623001054,72.3513623001054,72.3513623001054,72.3513623001054,73.25393250002526,i,1,0.8721497999504209,None,None,0,,,,,,female,20,00007,2023-11-30_18h57.53.826,IAT,2023.2.3,59.91755343251639,2023-11-30 18h58.22.395676 +0530,
"See above, the four categories you saw separately now appear together. Remember, each item belongs to only one group.

The green and white labels and items may help to identify the appropriate category. Use the E and I keys to categorize items into four groups left and right, and correct errors by hitting the other key.

Press E or I to continue.",Disabled,Abled,Negative,Positive,or,4,text_trial_type_4,img_trial_type_4,0,2,2,2,4,3,19,3,73.30158940004185,,,,,,,,,,,,,,,,,,73.25512060010806,73.30158940004185,73.30158940004185,73.30158940004185,73.30158940004185,73.30158940004185,73.30158940004185,73.58505870006047,73.58505870006047,73.58505870006047,73.58505870006047,73.58505870006047,74.23821750003844,e,1,0.6229733999352902,None,None,0,,,,,,female,20,00007,2023-11-30_18h57.53.826,IAT,2023.2.3,59.91755343251639,2023-11-30 18h58.22.395676 +0530,
"Sort the same four categories again. Remember to go as fast as you can while making as few mistakes as possible.

The green and white labels and items may help to identify the appropriate category. Use the E and I keys to categorize items into the four groups left and right, and correct errors by hitting the other key.

Press E or I to continue.",Disabled,Abled,Negative,Positive,or,4,text_trial_type_4,img_trial_type_4,0,3,3,3,0,0,0,3,78.82395320013165,,,,,,,,74.23943630000576,75.0188684000168,75.0188684000168,75.0188684000168,75.0188684000168,75.0188684000168,75.0188684000168,75.0188684000168,76.98935510008596,78.74201490008272,78.77570070000365,78.82395320013165,78.82395320013165,78.82395320013165,78.82395320013165,78.82395320013165,78.82395320013165,79.0581251999829,79.0581251999829,79.0581251999829,79.0581251999829,79.0581251999829,79.7448418000713,e,1,0.6758029998745769,None,None,0,,,,,,female,20,00007,2023-11-30_18h57.53.826,IAT,2023.2.3,59.91755343251639,2023-11-30 18h58.22.395676 +0530,
"Sort the same four categories again. Remember to go as fast as you can while making as few mistakes as possible.

The green and white labels and items may help to identify the appropriate category. Use the E and I keys to categorize items into the four groups left and right, and correct errors by hitting the other key.

Press E or I to continue.",Disabled,Abled,Negative,Positive,or,4,text_trial_type_4,img_trial_type_4,0,3,3,3,0,1,1,3,79.79052820010111,,,,,,,,,,,,,,,,,,79.7467094999738,79.79052820010111,79.79052820010111,79.79052820010111,79.79052820010111,79.79052820010111,79.79052820010111,80.0754358000122,80.0754358000122,80.0754358000122,80.0754358000122,80.0754358000122,80.62952960003167,e,1,0.5470407998654991,None,None,0,,,,,,female,20,00007,2023-11-30_18h57.53.826,IAT,2023.2.3,59.91755343251639,2023-11-30 18h58.22.395676 +0530,
"Sort the same four categories again. Remember to go as fast as you can while making as few mistakes as possible.

The green and white labels and items may help to identify the appropriate category. Use the E and I keys to categorize items into the four groups left and right, and correct errors by hitting the other key.

Press E or I to continue.",Disabled,Abled,Negative,Positive,or,3,text_trial_type_3,img_trial_type_3,0,3,3,3,0,2,2,2,80.6760726000648,,,,,,,,,,,,,,,,,,80.6308832000941,80.6760726000648,80.6760726000648,80.6760726000648,80.6760726000648,80.6760726000648,80.6760726000648,80.9596237000078,80.9596237000078,80.9596237000078,80.9596237000078,80.9596237000078,81.54594300012104,i,1,0.5517663001082838,None,None,0,,,,,,female,20,00007,2023-11-30_18h57.53.826,IAT,2023.2.3,59.91755343251639,2023-11-30 18h58.22.395676 +0530,
"Sort the same four categories again. Remember to go as fast as you can while making as few mistakes as possible.

The green and white labels and items may help to identify the appropriate category. Use the E and I keys to categorize items into the four groups left and right, and correct errors by hitting the other key.

Press E or I to continue.",Disabled,Abled,Negative,Positive,or,2,text_trial_type_2,img_trial_type_2,0,3,3,3,0,3,3,1,81.5812327999156,,,,,,,,,,,,,,,,,,81.54735410003923,81.5812327999156,81.5812327999156,81.5812327999156,81.5812327999156,81.5812327999156,81.5812327999156,81.8769988999702,81.8769988999702,81.8769988999702,81.8769988999702,81.8769988999702,82.78152419999242,e,1,0.8952540999744087,None,None,0,,,,,,female,20,00007,2023-11-30_18h57.53.826,IAT,2023.2.3,59.91755343251639,2023-11-30 18h58.22.395676 +0530,
"Sort the same four categories again. Remember to go as fast as you can while making as few mistakes as possible.

The green and white labels and items may help to identify the appropriate category. Use the E and I keys to categorize items into the four groups left and right, and correct errors by hitting the other key.

Press E or I to continue.",Disabled,Abled,Negative,Positive,or,2,text_trial_type_2,img_trial_type_2,0,3,3,3,1,0,4,1,82.81141770002432,,,,,,,,,,,,,,,,,,82.78332130005583,82.81141770002432,82.81141770002432,82.81141770002432,82.81141770002432,82.81141770002432,82.81141770002432,83.09591690008529,83.09591690008529,83.09591690008529,83.09591690008529,83.09591690008529,83.69825570005924,e,1,0.5702683001291007,None,None,0,,,,,,female,20,00007,2023-11-30_18h57.53.826,IAT,2023.2.3,59.91755343251639,2023-11-30 18h58.22.395676 +0530,
"Sort the same four categories again. Remember to go as fast as you can while making as few mistakes as possible.

The green and white labels and items may help to identify the appropriate category. Use the E and I keys to categorize items into the four groups left and right, and correct errors by hitting the other key.

Press E or I to continue.",Disabled,Abled,Negative,Positive,or,3,text_trial_type_3,img_trial_type_3,0,3,3,3,1,1,5,2,83.7471098001115,,,,,,,,,,,,,,,,,,83.69956759992056,83.7471098001115,83.7471098001115,83.7471098001115,83.7471098001115,83.7471098001115,83.7471098001115,84.0294242000673,84.0294242000673,84.0294242000673,84.0294242000673,84.0294242000673,84.60040899994783,i,1,0.5662271999754012,None,None,0,,,,,,female,20,00007,2023-11-30_18h57.53.826,IAT,2023.2.3,59.91755343251639,2023-11-30 18h58.22.395676 +0530,
"Sort the same four categories again. Remember to go as fast as you can while making as few mistakes as possible.

The green and white labels and items may help to identify the appropriate category. Use the E and I keys to categorize items into the four groups left and right, and correct errors by hitting the other key.

Press E or I to continue.",Disabled,Abled,Negative,Positive,or,1,text_trial_type_1,img_trial_type_1,0,3,3,3,1,2,6,0,84.6339913001284,,,,,,,,,,,,,,,,,,84.60168570000678,84.6339913001284,84.6339913001284,84.6339913001284,84.6339913001284,84.6339913001284,84.6339913001284,84.93012850009836,84.93012850009836,84.93012850009836,84.93012850009836,84.93012850009836,85.61801699991338,i,1,0.6802705998998135,None,None,0,,,,,,female,20,00007,2023-11-30_18h57.53.826,IAT,2023.2.3,59.91755343251639,2023-11-30 18h58.22.395676 +0530,
"Sort the same four categories again. Remember to go as fast as you can while making as few mistakes as possible.

The green and white labels and items may help to identify the appropriate category. Use the E and I keys to categorize items into the four groups left and right, and correct errors by hitting the other key.

Press E or I to continue.",Disabled,Abled,Negative,Positive,or,2,text_trial_type_2,img_trial_type_2,0,3,3,3,1,3,7,1,85.64851330011152,,,,,,,,,,,,,,,,,,85.61928509990685,85.64851330011152,85.64851330011152,85.64851330011152,85.64851330011152,85.64851330011152,85.64851330011152,85.93208779999986,85.93208779999986,85.93208779999986,85.93208779999986,85.93208779999986,86.55130870011635,e,1,0.5864874001126736,None,None,0,,,,,,female,20,00007,2023-11-30_18h57.53.826,IAT,2023.2.3,59.91755343251639,2023-11-30 18h58.22.395676 +0530,
"Sort the same four categories again. Remember to go as fast as you can while making as few mistakes as possible.

The green and white labels and items may help to identify the appropriate category. Use the E and I keys to categorize items into the four groups left and right, and correct errors by hitting the other key.

Press E or I to continue.",Disabled,Abled,Negative,Positive,or,3,text_trial_type_3,img_trial_type_3,0,3,3,3,2,0,8,2,86.59967270004563,,,,,,,,,,,,,,,,,,86.55267439992167,86.59967270004563,86.59967270004563,86.59967270004563,86.59967270004563,86.59967270004563,86.59967270004563,86.88252210011706,86.88252210011706,86.88252210011706,86.88252210011706,86.88252210011706,87.66930050007068,i,1,0.7613663000520319,None,None,0,,,,,,female,20,00007,2023-11-30_18h57.53.826,IAT,2023.2.3,59.91755343251639,2023-11-30 18h58.22.395676 +0530,
"Sort the same four categories again. Remember to go as fast as you can while making as few mistakes as possible.

The green and white labels and items may help to identify the appropriate category. Use the E and I keys to categorize items into the four groups left and right, and correct errors by hitting the other key.

Press E or I to continue.",Disabled,Abled,Negative,Positive,or,3,text_trial_type_3,img_trial_type_3,0,3,3,3,2,1,9,2,87.71667849994265,,,,,,,,,,,,,,,,,,87.67057249997742,87.71667849994265,87.71667849994265,87.71667849994265,87.71667849994265,87.71667849994265,87.71667849994265,88.00088720000349,88.00088720000349,88.00088720000349,88.00088720000349,88.00088720000349,88.58710299991071,i,1,0.5519571001641452,None,None,0,,,,,,female,20,00007,2023-11-30_18h57.53.826,IAT,2023.2.3,59.91755343251639,2023-11-30 18h58.22.395676 +0530,
"Sort the same four categories again. Remember to go as fast as you can while making as few mistakes as possible.

The green and white labels and items may help to identify the appropriate category. Use the E and I keys to categorize items into the four groups left and right, and correct errors by hitting the other key.

Press E or I to continue.",Disabled,Abled,Negative,Positive,or,1,text_trial_type_1,img_trial_type_1,0,3,3,3,2,2,10,0,88.62174970004708,,,,,,,,,,,,,,,,,,88.58872519992292,88.62174970004708,88.62174970004708,88.62174970004708,88.62174970004708,88.62174970004708,88.62174970004708,88.91877590003423,88.91877590003423,88.91877590003423,88.91877590003423,88.91877590003423,89.55438450002111,i,1,0.6145286001265049,None,None,0,,,,,,female,20,00007,2023-11-30_18h57.53.826,IAT,2023.2.3,59.91755343251639,2023-11-30 18h58.22.395676 +0530,
"Sort the same four categories again. Remember to go as fast as you can while making as few mistakes as possible.

The green and white labels and items may help to identify the appropriate category. Use the E and I keys to categorize items into the four groups left and right, and correct errors by hitting the other key.

Press E or I to continue.",Disabled,Abled,Negative,Positive,or,4,text_trial_type_4,img_trial_type_4,0,3,3,3,2,3,11,3,89.60290520009585,,,,,,,,,,,,,,,,,,89.55566409998573,89.60290520009585,89.60290520009585,89.60290520009585,89.60290520009585,89.60290520009585,89.60290520009585,89.86993580008857,89.86993580008857,89.86993580008857,89.86993580008857,89.86993580008857,90.68844170006923,e,1,0.8035865998826921,None,None,0,,,,,,female,20,00007,2023-11-30_18h57.53.826,IAT,2023.2.3,59.91755343251639,2023-11-30 18h58.22.395676 +0530,
"Sort the same four categories again. Remember to go as fast as you can while making as few mistakes as possible.

The green and white labels and items may help to identify the appropriate category. Use the E and I keys to categorize items into the four groups left and right, and correct errors by hitting the other key.

Press E or I to continue.",Disabled,Abled,Negative,Positive,or,2,text_trial_type_2,img_trial_type_2,0,3,3,3,3,0,12,1,90.72337749996223,,,,,,,,,,,,,,,,,,90.6897754999809,90.72337749996223,90.72337749996223,90.72337749996223,90.72337749996223,90.72337749996223,90.72337749996223,91.00476950011216,91.00476950011216,91.00476950011216,91.00476950011216,91.00476950011216,91.67385730007663,e,1,0.6379094999283552,None,None,0,,,,,,female,20,00007,2023-11-30_18h57.53.826,IAT,2023.2.3,59.91755343251639,2023-11-30 18h58.22.395676 +0530,
"Sort the same four categories again. Remember to go as fast as you can while making as few mistakes as possible.

The green and white labels and items may help to identify the appropriate category. Use the E and I keys to categorize items into the four groups left and right, and correct errors by hitting the other key.

Press E or I to continue.",Disabled,Abled,Negative,Positive,or,2,text_trial_type_2,img_trial_type_2,0,3,3,3,3,1,13,1,91.70482350001112,,,,,,,,,,,,,,,,,,91.675153600052,91.70482350001112,91.70482350001112,91.70482350001112,91.70482350001112,91.70482350001112,91.70482350001112,92.00547039997764,92.00547039997764,92.00547039997764,92.00547039997764,92.00547039997764,92.70829849992879,e,1,0.6922230001073331,None,None,0,,,,,,female,20,00007,2023-11-30_18h57.53.826,IAT,2023.2.3,59.91755343251639,2023-11-30 18h58.22.395676 +0530,
"Sort the same four categories again. Remember to go as fast as you can while making as few mistakes as possible.

The green and white labels and items may help to identify the appropriate category. Use the E and I keys to categorize items into the four groups left and right, and correct errors by hitting the other key.

Press E or I to continue.",Disabled,Abled,Negative,Positive,or,2,text_trial_type_2,img_trial_type_2,0,3,3,3,3,2,14,1,92.73992080008611,,,,,,,,,,,,,,,,,,92.70958309993148,92.73992080008611,92.73992080008611,92.73992080008611,92.73992080008611,92.73992080008611,92.73992080008611,93.02288820012473,93.02288820012473,93.02288820012473,93.02288820012473,93.02288820012473,93.45941259991378,e,1,0.42974409996531904,None,None,0,,,,,,female,20,00007,2023-11-30_18h57.53.826,IAT,2023.2.3,59.91755343251639,2023-11-30 18h58.22.395676 +0530,
"Sort the same four categories again. Remember to go as fast as you can while making as few mistakes as possible.

The green and white labels and items may help to identify the appropriate category. Use the E and I keys to categorize items into the four groups left and right, and correct errors by hitting the other key.

Press E or I to continue.",Disabled,Abled,Negative,Positive,or,4,text_trial_type_4,img_trial_type_4,0,3,3,3,3,3,15,3,93.50697310012765,,,,,,,,,,,,,,,,,,93.46095829992555,93.50697310012765,93.50697310012765,93.50697310012765,93.50697310012765,93.50697310012765,93.50697310012765,93.7902132999152,93.7902132999152,93.7902132999152,93.7902132999152,93.7902132999152,94.52680619992316,e,1,0.7250769000966102,None,None,0,,,,,,female,20,00007,2023-11-30_18h57.53.826,IAT,2023.2.3,59.91755343251639,2023-11-30 18h58.22.395676 +0530,
"Sort the same four categories again. Remember to go as fast as you can while making as few mistakes as possible.

The green and white labels and items may help to identify the appropriate category. Use the E and I keys to categorize items into the four groups left and right, and correct errors by hitting the other key.

Press E or I to continue.",Disabled,Abled,Negative,Positive,or,1,text_trial_type_1,img_trial_type_1,0,3,3,3,4,0,16,0,94.56124670011923,,,,,,,,,,,,,,,,,,94.52812719997019,94.56124670011923,94.56124670011923,94.56124670011923,94.56124670011923,94.56124670011923,94.56124670011923,94.85790430009365,94.85790430009365,94.85790430009365,94.85790430009365,94.85790430009365,95.40975770005025,i,1,0.5416907998733222,None,None,0,,,,,,female,20,00007,2023-11-30_18h57.53.826,IAT,2023.2.3,59.91755343251639,2023-11-30 18h58.22.395676 +0530,
"Sort the same four categories again. Remember to go as fast as you can while making as few mistakes as possible.

The green and white labels and items may help to identify the appropriate category. Use the E and I keys to categorize items into the four groups left and right, and correct errors by hitting the other key.

Press E or I to continue.",Disabled,Abled,Negative,Positive,or,4,text_trial_type_4,img_trial_type_4,0,3,3,3,4,1,17,3,95.45971870003268,,,,,,,,,,,,,,,,,,95.41058939998038,95.45971870003268,95.45971870003268,95.45971870003268,95.45971870003268,95.45971870003268,95.45971870003268,95.72556970012374,95.72556970012374,95.72556970012374,95.72556970012374,95.72556970012374,96.54527200013399,e,1,0.8095703001599759,None,None,0,,,,,,female,20,00007,2023-11-30_18h57.53.826,IAT,2023.2.3,59.91755343251639,2023-11-30 18h58.22.395676 +0530,
"Sort the same four categories again. Remember to go as fast as you can while making as few mistakes as possible.

The green and white labels and items may help to identify the appropriate category. Use the E and I keys to categorize items into the four groups left and right, and correct errors by hitting the other key.

Press E or I to continue.",Disabled,Abled,Negative,Positive,or,2,text_trial_type_2,img_trial_type_2,0,3,3,3,4,2,18,1,96.57985679991543,,,,,,,,,,,,,,,,,,96.54703489993699,96.57985679991543,96.57985679991543,96.57985679991543,96.57985679991543,96.57985679991543,96.57985679991543,96.86119400011376,96.86119400011376,96.86119400011376,96.86119400011376,96.86119400011376,97.56325759994797,e,1,0.678380599943921,None,None,0,,,,,,female,20,00007,2023-11-30_18h57.53.826,IAT,2023.2.3,59.91755343251639,2023-11-30 18h58.22.395676 +0530,
"Sort the same four categories again. Remember to go as fast as you can while making as few mistakes as possible.

The green and white labels and items may help to identify the appropriate category. Use the E and I keys to categorize items into the four groups left and right, and correct errors by hitting the other key.

Press E or I to continue.",Disabled,Abled,Negative,Positive,or,2,text_trial_type_2,img_trial_type_2,0,3,3,3,4,3,19,1,97.59473220002837,,,,,,,,,,,,,,,,,,97.56463210005313,97.59473220002837,97.59473220002837,97.59473220002837,97.59473220002837,97.59473220002837,97.59473220002837,97.87910920009017,97.87910920009017,97.87910920009017,97.87910920009017,97.87910920009017,98.39766169991344,e,1,0.5138000000733882,None,None,0,,,,,,female,20,00007,2023-11-30_18h57.53.826,IAT,2023.2.3,59.91755343251639,2023-11-30 18h58.22.395676 +0530,
"Sort the same four categories again. Remember to go as fast as you can while making as few mistakes as possible.

The green and white labels and items may help to identify the appropriate category. Use the E and I keys to categorize items into the four groups left and right, and correct errors by hitting the other key.

Press E or I to continue.",Disabled,Abled,Negative,Positive,or,4,text_trial_type_4,img_trial_type_4,0,3,3,3,5,0,20,3,98.44603150011972,,,,,,,,,,,,,,,,,,98.39904669998214,98.44603150011972,98.44603150011972,98.44603150011972,98.44603150011972,98.44603150011972,98.44603150011972,98.72988160001114,98.72988160001114,98.72988160001114,98.72988160001114,98.72988160001114,99.58190420013852,e,1,0.8179798000492156,None,None,0,,,,,,female,20,00007,2023-11-30_18h57.53.826,IAT,2023.2.3,59.91755343251639,2023-11-30 18h58.22.395676 +0530,
"Sort the same four categories again. Remember to go as fast as you can while making as few mistakes as possible.

The green and white labels and items may help to identify the appropriate category. Use the E and I keys to categorize items into the four groups left and right, and correct errors by hitting the other key.

Press E or I to continue.",Disabled,Abled,Negative,Positive,or,1,text_trial_type_1,img_trial_type_1,0,3,3,3,5,1,21,0,99.61735190008767,,,,,,,,,,,,,,,,,,99.58318029996008,99.61735190008767,99.61735190008767,99.61735190008767,99.61735190008767,99.61735190008767,99.61735190008767,99.91376479994506,99.91376479994506,99.91376479994506,99.91376479994506,99.91376479994506,100.55035819998011,i,1,0.6190647000912577,None,None,0,,,,,,female,20,00007,2023-11-30_18h57.53.826,IAT,2023.2.3,59.91755343251639,2023-11-30 18h58.22.395676 +0530,
"Sort the same four categories again. Remember to go as fast as you can while making as few mistakes as possible.

The green and white labels and items may help to identify the appropriate category. Use the E and I keys to categorize items into the four groups left and right, and correct errors by hitting the other key.

Press E or I to continue.",Disabled,Abled,Negative,Positive,or,3,text_trial_type_3,img_trial_type_3,0,3,3,3,5,2,22,2,100.59749540011398,,,,,,,,,,,,,,,,,,100.55161760002375,100.59749540011398,100.59749540011398,100.59749540011398,100.59749540011398,100.59749540011398,100.59749540011398,100.8822164000012,100.8822164000012,100.8822164000012,100.8822164000012,100.8822164000012,101.71841620001942,i,1,0.8101514000445604,None,None,0,,,,,,female,20,00007,2023-11-30_18h57.53.826,IAT,2023.2.3,59.91755343251639,2023-11-30 18h58.22.395676 +0530,
"Sort the same four categories again. Remember to go as fast as you can while making as few mistakes as possible.

The green and white labels and items may help to identify the appropriate category. Use the E and I keys to categorize items into the four groups left and right, and correct errors by hitting the other key.

Press E or I to continue.",Disabled,Abled,Negative,Positive,or,3,text_trial_type_3,img_trial_type_3,0,3,3,3,5,3,23,2,101.76487100007944,,,,,,,,,,,,,,,,,,101.71977970004082,101.76487100007944,101.76487100007944,101.76487100007944,101.76487100007944,101.76487100007944,101.76487100007944,102.05017350008711,102.05017350008711,102.05017350008711,102.05017350008711,102.05017350008711,102.70253319991753,i,1,0.6277050001081079,None,None,0,,,,,,female,20,00007,2023-11-30_18h57.53.826,IAT,2023.2.3,59.91755343251639,2023-11-30 18h58.22.395676 +0530,
"Sort the same four categories again. Remember to go as fast as you can while making as few mistakes as possible.

The green and white labels and items may help to identify the appropriate category. Use the E and I keys to categorize items into the four groups left and right, and correct errors by hitting the other key.

Press E or I to continue.",Disabled,Abled,Negative,Positive,or,3,text_trial_type_3,img_trial_type_3,0,3,3,3,6,0,24,2,102.74950959999114,,,,,,,,,,,,,,,,,,102.70396600011736,102.74950959999114,102.74950959999114,102.74950959999114,102.74950959999114,102.74950959999114,102.74950959999114,103.03419389994815,103.03419389994815,103.03419389994815,103.03419389994815,103.03419389994815,103.60300759994425,i,1,0.5373921999707818,None,None,0,,,,,,female,20,00007,2023-11-30_18h57.53.826,IAT,2023.2.3,59.91755343251639,2023-11-30 18h58.22.395676 +0530,
"Sort the same four categories again. Remember to go as fast as you can while making as few mistakes as possible.

The green and white labels and items may help to identify the appropriate category. Use the E and I keys to categorize items into the four groups left and right, and correct errors by hitting the other key.

Press E or I to continue.",Disabled,Abled,Negative,Positive,or,3,text_trial_type_3,img_trial_type_3,0,3,3,3,6,1,25,2,103.65101139992476,,,,,,,,,,,,,,,,,,103.60437930002809,103.65101139992476,103.65101139992476,103.65101139992476,103.65101139992476,103.65101139992476,103.65101139992476,103.93507200013846,103.93507200013846,103.93507200013846,103.93507200013846,103.93507200013846,104.58792640012689,i,1,0.6214209001045674,None,None,0,,,,,,female,20,00007,2023-11-30_18h57.53.826,IAT,2023.2.3,59.91755343251639,2023-11-30 18h58.22.395676 +0530,
"Sort the same four categories again. Remember to go as fast as you can while making as few mistakes as possible.

The green and white labels and items may help to identify the appropriate category. Use the E and I keys to categorize items into the four groups left and right, and correct errors by hitting the other key.

Press E or I to continue.",Disabled,Abled,Negative,Positive,or,2,text_trial_type_2,img_trial_type_2,0,3,3,3,6,2,26,1,104.62144870008342,,,,,,,,,,,,,,,,,,104.58923169993795,104.62144870008342,104.62144870008342,104.62144870008342,104.62144870008342,104.62144870008342,104.62144870008342,104.9031889999751,104.9031889999751,104.9031889999751,104.9031889999751,104.9031889999751,105.52214629994705,e,1,0.5870274000335485,None,None,0,,,,,,female,20,00007,2023-11-30_18h57.53.826,IAT,2023.2.3,59.91755343251639,2023-11-30 18h58.22.395676 +0530,
"Sort the same four categories again. Remember to go as fast as you can while making as few mistakes as possible.

The green and white labels and items may help to identify the appropriate category. Use the E and I keys to categorize items into the four groups left and right, and correct errors by hitting the other key.

Press E or I to continue.",Disabled,Abled,Negative,Positive,or,1,text_trial_type_1,img_trial_type_1,0,3,3,3,6,3,27,0,105.55236400011927,,,,,,,,,,,,,,,,,,105.52350250002928,105.55236400011927,105.55236400011927,105.55236400011927,105.55236400011927,105.55236400011927,105.55236400011927,105.85310550010763,105.85310550010763,105.85310550010763,105.85310550010763,105.85310550010763,107.22492680000141,i,1,1.3604799001477659,None,e,1,0.48012729990296066,None,,,,female,20,00007,2023-11-30_18h57.53.826,IAT,2023.2.3,59.91755343251639,2023-11-30 18h58.22.395676 +0530,
"Sort the same four categories again. Remember to go as fast as you can while making as few mistakes as possible.

The green and white labels and items may help to identify the appropriate category. Use the E and I keys to categorize items into the four groups left and right, and correct errors by hitting the other key.

Press E or I to continue.",Disabled,Abled,Negative,Positive,or,4,text_trial_type_4,img_trial_type_4,0,3,3,3,7,0,28,3,107.27178209996782,,,,,,,,,,,,,,,,,,107.2266867000144,107.27178209996782,107.27178209996782,107.27178209996782,107.27178209996782,107.27178209996782,107.27178209996782,107.55494739999995,107.55494739999995,107.55494739999995,107.55494739999995,107.55494739999995,108.69350460008718,e,1,1.1295543999876827,None,None,0,,,,,,female,20,00007,2023-11-30_18h57.53.826,IAT,2023.2.3,59.91755343251639,2023-11-30 18h58.22.395676 +0530,
"Sort the same four categories again. Remember to go as fast as you can while making as few mistakes as possible.

The green and white labels and items may help to identify the appropriate category. Use the E and I keys to categorize items into the four groups left and right, and correct errors by hitting the other key.

Press E or I to continue.",Disabled,Abled,Negative,Positive,or,3,text_trial_type_3,img_trial_type_3,0,3,3,3,7,1,29,2,108.73927949997596,,,,,,,,,,,,,,,,,,108.69479149999097,108.73927949997596,108.73927949997596,108.73927949997596,108.73927949997596,108.73927949997596,108.73927949997596,109.02403530012816,109.02403530012816,109.02403530012816,109.02403530012816,109.02403530012816,109.67769289994612,i,1,0.6450108999852091,None,None,0,,,,,,female,20,00007,2023-11-30_18h57.53.826,IAT,2023.2.3,59.91755343251639,2023-11-30 18h58.22.395676 +0530,
"Sort the same four categories again. Remember to go as fast as you can while making as few mistakes as possible.

The green and white labels and items may help to identify the appropriate category. Use the E and I keys to categorize items into the four groups left and right, and correct errors by hitting the other key.

Press E or I to continue.",Disabled,Abled,Negative,Positive,or,3,text_trial_type_3,img_trial_type_3,0,3,3,3,7,2,30,2,109.72433110000566,,,,,,,,,,,,,,,,,,109.67915609991178,109.72433110000566,109.72433110000566,109.72433110000566,109.72433110000566,109.72433110000566,109.72433110000566,110.00824839994311,110.00824839994311,110.00824839994311,110.00824839994311,110.00824839994311,110.49452339997515,i,1,0.46401740005239844,None,None,0,,,,,,female,20,00007,2023-11-30_18h57.53.826,IAT,2023.2.3,59.91755343251639,2023-11-30 18h58.22.395676 +0530,
"Sort the same four categories again. Remember to go as fast as you can while making as few mistakes as possible.

The green and white labels and items may help to identify the appropriate category. Use the E and I keys to categorize items into the four groups left and right, and correct errors by hitting the other key.

Press E or I to continue.",Disabled,Abled,Negative,Positive,or,4,text_trial_type_4,img_trial_type_4,0,3,3,3,7,3,31,3,110.54268230008893,,,,,,,,,,,,,,,,,,110.49591520009562,110.54268230008893,110.54268230008893,110.54268230008893,110.54268230008893,110.54268230008893,110.54268230008893,110.82616259995848,110.82616259995848,110.82616259995848,110.82616259995848,110.82616259995848,111.44453700003214,e,1,0.5858624000102282,None,None,0,,,,,,female,20,00007,2023-11-30_18h57.53.826,IAT,2023.2.3,59.91755343251639,2023-11-30 18h58.22.395676 +0530,
"Sort the same four categories again. Remember to go as fast as you can while making as few mistakes as possible.

The green and white labels and items may help to identify the appropriate category. Use the E and I keys to categorize items into the four groups left and right, and correct errors by hitting the other key.

Press E or I to continue.",Disabled,Abled,Negative,Positive,or,1,text_trial_type_1,img_trial_type_1,0,3,3,3,8,0,32,0,111.47942749992944,,,,,,,,,,,,,,,,,,111.44583939993754,111.47942749992944,111.47942749992944,111.47942749992944,111.47942749992944,111.47942749992944,111.47942749992944,111.77640480012633,111.77640480012633,111.77640480012633,111.77640480012633,111.77640480012633,112.39665320003405,i,1,0.6148362001404166,None,None,0,,,,,,female,20,00007,2023-11-30_18h57.53.826,IAT,2023.2.3,59.91755343251639,2023-11-30 18h58.22.395676 +0530,
"Sort the same four categories again. Remember to go as fast as you can while making as few mistakes as possible.

The green and white labels and items may help to identify the appropriate category. Use the E and I keys to categorize items into the four groups left and right, and correct errors by hitting the other key.

Press E or I to continue.",Disabled,Abled,Negative,Positive,or,4,text_trial_type_4,img_trial_type_4,0,3,3,3,8,1,33,3,112.44523479999043,,,,,,,,,,,,,,,,,,112.39802470011637,112.44523479999043,112.44523479999043,112.44523479999043,112.44523479999043,112.44523479999043,112.44523479999043,112.72747809998691,112.72747809998691,112.72747809998691,112.72747809998691,112.72747809998691,113.53120009996928,e,1,0.7704066999722272,None,None,0,,,,,,female,20,00007,2023-11-30_18h57.53.826,IAT,2023.2.3,59.91755343251639,2023-11-30 18h58.22.395676 +0530,
"Sort the same four categories again. Remember to go as fast as you can while making as few mistakes as possible.

The green and white labels and items may help to identify the appropriate category. Use the E and I keys to categorize items into the four groups left and right, and correct errors by hitting the other key.

Press E or I to continue.",Disabled,Abled,Negative,Positive,or,2,text_trial_type_2,img_trial_type_2,0,3,3,3,8,2,34,1,113.56471960013732,,,,,,,,,,,,,,,,,,113.53247440000996,113.56471960013732,113.56471960013732,113.56471960013732,113.56471960013732,113.56471960013732,113.56471960013732,113.86240150011145,113.86240150011145,113.86240150011145,113.86240150011145,113.86240150011145,114.44876540009864,e,1,0.5583304001484066,None,None,0,,,,,,female,20,00007,2023-11-30_18h57.53.826,IAT,2023.2.3,59.91755343251639,2023-11-30 18h58.22.395676 +0530,
"Sort the same four categories again. Remember to go as fast as you can while making as few mistakes as possible.

The green and white labels and items may help to identify the appropriate category. Use the E and I keys to categorize items into the four groups left and right, and correct errors by hitting the other key.

Press E or I to continue.",Disabled,Abled,Negative,Positive,or,1,text_trial_type_1,img_trial_type_1,0,3,3,3,8,3,35,0,114.47873859992251,,,,,,,,,,,,,,,,,,114.45014600013383,114.47873859992251,114.47873859992251,114.47873859992251,114.47873859992251,114.47873859992251,114.47873859992251,114.76392840011977,114.76392840011977,114.76392840011977,114.76392840011977,114.76392840011977,115.85105299996212,i,1,1.0638704001903534,None,e,1,0.540757300099358,None,,,,female,20,00007,2023-11-30_18h57.53.826,IAT,2023.2.3,59.91755343251639,2023-11-30 18h58.22.395676 +0530,
"Sort the same four categories again. Remember to go as fast as you can while making as few mistakes as possible.

The green and white labels and items may help to identify the appropriate category. Use the E and I keys to categorize items into the four groups left and right, and correct errors by hitting the other key.

Press E or I to continue.",Disabled,Abled,Negative,Positive,or,1,text_trial_type_1,img_trial_type_1,0,3,3,3,9,0,36,0,115.88096569990739,,,,,,,,,,,,,,,,,,115.85260950005613,115.88096569990739,115.88096569990739,115.88096569990739,115.88096569990739,115.88096569990739,115.88096569990739,116.18179970001802,116.18179970001802,116.18179970001802,116.18179970001802,116.18179970001802,116.73489079996943,i,1,0.5345370001159608,None,None,0,,,,,,female,20,00007,2023-11-30_18h57.53.826,IAT,2023.2.3,59.91755343251639,2023-11-30 18h58.22.395676 +0530,
"Sort the same four categories again. Remember to go as fast as you can while making as few mistakes as possible.

The green and white labels and items may help to identify the appropriate category. Use the E and I keys to categorize items into the four groups left and right, and correct errors by hitting the other key.

Press E or I to continue.",Disabled,Abled,Negative,Positive,or,1,text_trial_type_1,img_trial_type_1,0,3,3,3,9,1,37,0,116.76439719996415,,,,,,,,,,,,,,,,,,116.7361725999508,116.76439719996415,116.76439719996415,116.76439719996415,116.76439719996415,116.76439719996415,116.76439719996415,117.04978160001338,117.04978160001338,117.04978160001338,117.04978160001338,117.04978160001338,117.56810940010473,i,1,0.49045200017280877,None,None,0,,,,,,female,20,00007,2023-11-30_18h57.53.826,IAT,2023.2.3,59.91755343251639,2023-11-30 18h58.22.395676 +0530,
"Sort the same four categories again. Remember to go as fast as you can while making as few mistakes as possible.

The green and white labels and items may help to identify the appropriate category. Use the E and I keys to categorize items into the four groups left and right, and correct errors by hitting the other key.

Press E or I to continue.",Disabled,Abled,Negative,Positive,or,4,text_trial_type_4,img_trial_type_4,0,3,3,3,9,2,38,3,117.61795770004392,,,,,,,,,,,,,,,,,,117.56941769993864,117.61795770004392,117.61795770004392,117.61795770004392,117.61795770004392,117.61795770004392,117.61795770004392,117.90097289998084,117.90097289998084,117.90097289998084,117.90097289998084,117.90097289998084,118.60349010000937,e,1,0.6738293000962585,None,None,0,,,,,,female,20,00007,2023-11-30_18h57.53.826,IAT,2023.2.3,59.91755343251639,2023-11-30 18h58.22.395676 +0530,
"Sort the same four categories again. Remember to go as fast as you can while making as few mistakes as possible.

The green and white labels and items may help to identify the appropriate category. Use the E and I keys to categorize items into the four groups left and right, and correct errors by hitting the other key.

Press E or I to continue.",Disabled,Abled,Negative,Positive,or,1,text_trial_type_1,img_trial_type_1,0,3,3,3,9,3,39,0,118.63781210011803,,,,,,,,,,,,,,,,,,118.60482389992103,118.63781210011803,118.63781210011803,118.63781210011803,118.63781210011803,118.63781210011803,118.63781210011803,118.91838779998943,118.91838779998943,118.91838779998943,118.91838779998943,118.91838779998943,119.48815590003505,i,1,0.5651634000241756,None,None,0,,,,,,female,20,00007,2023-11-30_18h57.53.826,IAT,2023.2.3,59.91755343251639,2023-11-30 18h58.22.395676 +0530,
"Notice above, there are only two cateogries and they have switched positions. The concept that was previously on the left is now on the right, and the concept that was on the right is now on the left. Practice this new configuration.

Use the E and I keys to catgorize items left and right, and correct errors by hitting the other key.

Press E or I to continue.",Disabled,Abled, , , ,1,text_trial_type_1,img_trial_type_1,0,4,4,4,0,0,0,0,123.07182470010594,,,,,,,,119.48946209996939,120.26877430011518,120.26877430011518,120.26877430011518,120.26877430011518,120.26877430011518,120.26877430011518,120.26877430011518,122.23858739994466,123.0081027999986,123.03963920008391,123.07182470010594,123.07182470010594,123.07182470010594,123.07182470010594,123.07182470010594,123.07182470010594,123.3234840000514,123.3234840000514,123.3234840000514,123.3234840000514,123.3234840000514,123.95891340007074,e,1,0.6259792998898774,None,None,0,,,,,,female,20,00007,2023-11-30_18h57.53.826,IAT,2023.2.3,59.91755343251639,2023-11-30 18h58.22.395676 +0530,
"Notice above, there are only two cateogries and they have switched positions. The concept that was previously on the left is now on the right, and the concept that was on the right is now on the left. Practice this new configuration.

Use the E and I keys to catgorize items left and right, and correct errors by hitting the other key.

Press E or I to continue.",Disabled,Abled, , , ,2,text_trial_type_2,img_trial_type_2,0,4,4,4,0,1,1,1,123.9897418001201,,,,,,,,,,,,,,,,,,123.961014600005,123.9897418001201,123.9897418001201,123.9897418001201,123.9897418001201,123.9897418001201,123.9897418001201,124.27449310012162,124.27449310012162,124.27449310012162,124.27449310012162,124.27449310012162,124.90983969997615,i,1,0.6038269000127912,None,None,0,,,,,,female,20,00007,2023-11-30_18h57.53.826,IAT,2023.2.3,59.91755343251639,2023-11-30 18h58.22.395676 +0530,
"Notice above, there are only two cateogries and they have switched positions. The concept that was previously on the left is now on the right, and the concept that was on the right is now on the left. Practice this new configuration.

Use the E and I keys to catgorize items left and right, and correct errors by hitting the other key.

Press E or I to continue.",Disabled,Abled, , , ,1,text_trial_type_1,img_trial_type_1,0,4,4,4,1,0,2,0,124.94145249994472,,,,,,,,,,,,,,,,,,124.9113970999606,124.94145249994472,124.94145249994472,124.94145249994472,124.94145249994472,124.94145249994472,124.94145249994472,125.24126949999481,125.24126949999481,125.24126949999481,125.24126949999481,125.24126949999481,126.22745110001415,e,1,0.9535498998593539,None,None,0,,,,,,female,20,00007,2023-11-30_18h57.53.826,IAT,2023.2.3,59.91755343251639,2023-11-30 18h58.22.395676 +0530,
"Notice above, there are only two cateogries and they have switched positions. The concept that was previously on the left is now on the right, and the concept that was on the right is now on the left. Practice this new configuration.

Use the E and I keys to catgorize items left and right, and correct errors by hitting the other key.

Press E or I to continue.",Disabled,Abled, , , ,2,text_trial_type_2,img_trial_type_2,0,4,4,4,1,1,3,1,126.25875229993835,,,,,,,,,,,,,,,,,,126.22896560002118,126.25875229993835,126.25875229993835,126.25875229993835,126.25875229993835,126.25875229993835,126.25875229993835,126.543526600115,126.543526600115,126.543526600115,126.543526600115,126.543526600115,127.1956309999805,i,1,0.6258660000748932,None,None,0,,,,,,female,20,00007,2023-11-30_18h57.53.826,IAT,2023.2.3,59.91755343251639,2023-11-30 18h58.22.395676 +0530,
"Notice above, there are only two cateogries and they have switched positions. The concept that was previously on the left is now on the right, and the concept that was on the right is now on the left. Practice this new configuration.

Use the E and I keys to catgorize items left and right, and correct errors by hitting the other key.

Press E or I to continue.",Disabled,Abled, , , ,1,text_trial_type_1,img_trial_type_1,0,4,4,4,2,0,4,0,127.22790440008976,,,,,,,,,,,,,,,,,,127.197158300085,127.22790440008976,127.22790440008976,127.22790440008976,127.22790440008976,127.22790440008976,127.22790440008976,127.51130690006539,127.51130690006539,127.51130690006539,127.51130690006539,127.51130690006539,128.39682550006546,e,1,0.8592322000768036,None,None,0,,,,,,female,20,00007,2023-11-30_18h57.53.826,IAT,2023.2.3,59.91755343251639,2023-11-30 18h58.22.395676 +0530,
"Notice above, there are only two cateogries and they have switched positions. The concept that was previously on the left is now on the right, and the concept that was on the right is now on the left. Practice this new configuration.

Use the E and I keys to catgorize items left and right, and correct errors by hitting the other key.

